time,ax,ay,az
0,6.50521303491303e-19,1.73472347597681e-18,-3.16569181555404
0.0625,2.16840434497101e-19,1.73472347597681e-18,-3.12605138683919
0.125,6.50521303491303e-19,0,-3.00793110852444
0.1875,6.50521303491303e-19,8.67361737988404e-19,-2.8146248322242
0.25,6.50521303491303e-19,1.73472347597681e-18,-2.55143514380682
0.3125,6.50521303491303e-19,8.67361737988404e-19,-2.22545636238892
0.375,4.33680868994202e-19,8.67361737988404e-19,-1.84530496493949
0.4375,4.33680868994202e-19,4.33680868994202e-19,-1.42081900864121
0.5,2.16840434497101e-19,0,-0.962747117895014
0.5625,1.62630325872826e-19,4.33680868994202e-19,-0.482444493770258
0.625,-2.5410988417629e-21,-3.3881317890172e-21,0.00841151463174492
0.6875,-1.0842021724855e-19,0,0.49807958513792
0.75,-2.16840434497101e-19,-4.33680868994202e-19,0.974985455432423
0.8125,-3.25260651745651e-19,-4.33680868994202e-19,1.42792976878179
0.875,-4.33680868994202e-19,0,1.84627984979587
0.9375,-6.50521303491303e-19,-8.67361737988404e-19,2.22015358738404
1,-2.16840434497101e-19,-8.67361737988404e-19,2.54060249118639
1.0625,-6.50521303491303e-19,-8.67361737988404e-19,2.7997979901136
1.125,-8.67361737988404e-19,-8.67361737988404e-19,2.99122073882073
1.1875,-8.67361737988404e-19,-8.67361737988404e-19,3.10984787048035
1.25,-6.50521303491303e-19,0,3.15232863534165
1.3125,-8.67361737988404e-19,-8.67361737988404e-19,3.11713548642489
1.375,-1.0842021724855e-18,-8.67361737988404e-19,3.00467602650382
1.4375,-8.67361737988404e-19,0,2.81735165250967
1.5,-6.50521303491303e-19,-8.67361737988404e-19,2.55955124452076
1.5625,-4.33680868994202e-19,-8.67361737988404e-19,2.23757255110003
1.625,-2.16840434497101e-19,0,1.85946946062699
1.6875,-4.33680868994202e-19,-4.33680868994202e-19,1.43482938346015
1.75,-2.16840434497101e-19,-4.33680868994202e-19,0.974490703721118
1.8125,-5.42101086242752e-20,-2.16840434497101e-19,0.490214950495805
1.875,1.27054942088145e-21,0,-0.00566859104363209
1.9375,1.0842021724855e-19,0,-0.500626990838103
2,2.16840434497101e-19,0,-0.982278553924972
2.0625,3.25260651745651e-19,8.67361737988404e-19,-1.43872316709359
2.125,2.16840434497101e-19,-8.67361737988404e-19,-1.85883675710995
2.1875,6.50521303491303e-19,0,-2.23252311788552
2.25,6.50521303491303e-19,8.67361737988404e-19,-2.55092095317479
2.3125,8.67361737988404e-19,0,-2.80656790513797
2.375,6.50521303491303e-19,0,-2.99352609613769
2.4375,8.67361737988404e-19,1.73472347597681e-18,-3.10747501086808
2.5,8.67361737988404e-19,1.73472347597681e-18,-3.14577734374993
2.5625,8.67361737988404e-19,1.73472347597681e-18,-3.10752193052653
2.625,4.33680868994202e-19,8.67361737988404e-19,-2.99354547360681
2.6875,8.67361737988404e-19,8.67361737988404e-19,-2.80643199085179
2.75,6.50521303491303e-19,8.67361737988404e-19,-2.55048634456219
2.8125,2.16840434497101e-19,8.67361737988404e-19,-2.23167637103688
2.875,4.33680868994202e-19,0,-1.85753743090559
2.9375,6.50521303491303e-19,4.33680868994202e-19,-1.43703384617675
3,1.0842021724855e-19,0,-0.980373671903545
3.0625,1.0842021724855e-19,0,-0.498776344454946
3.125,1.27054942088145e-21,1.6940658945086e-21,-0.00419655352941052
3.1875,-1.62630325872826e-19,-2.16840434497101e-19,0.490988313247634
3.25,-2.16840434497101e-19,-4.33680868994202e-19,0.974316154852767
3.3125,-3.25260651745651e-19,-4.33680868994202e-19,1.43358977570395
3.375,-4.33680868994202e-19,-8.67361737988404e-19,1.85722277967539
3.4375,-6.50521303491303e-19,-8.67361737988404e-19,2.23456625274112
3.5,-6.50521303491303e-19,-1.73472347597681e-18,2.55620206149557
3.5625,-8.67361737988404e-19,-8.67361737988404e-19,2.81419115841075
3.625,-1.0842021724855e-18,-8.67361737988404e-19,3.00226874460243
3.6875,-6.50521303491303e-19,-2.60208521396521e-18,3.11598203803037
3.75,-6.50521303491303e-19,-8.67361737988404e-19,3.15277023514085
3.8125,-6.50521303491303e-19,-8.67361737988404e-19,3.11198958054712
3.875,-6.50521303491303e-19,-8.67361737988404e-19,2.99488891870352
3.9375,-1.0842021724855e-18,-8.67361737988404e-19,2.80454248970461
4,0,-8.67361737988404e-19,2.54574701696284
4.0625,-4.33680868994202e-19,0,2.22488945474239
4.125,-4.33680868994202e-19,0,1.84979039459659
4.1875,-2.16840434497101e-19,-8.67361737988404e-19,1.42952643750606
4.25,-3.25260651745651e-19,-8.67361737988404e-19,0.974233216977747
4.3125,-5.42101086242752e-20,0,0.49488956620071
4.375,-1.05879118406788e-21,-8.470329472543e-22,0.0030828268803817
4.4375,1.0842021724855e-19,0,-0.489244365562541
4.5,3.25260651745651e-19,4.33680868994202e-19,-0.970064330320985
4.5625,4.33680868994202e-19,4.33680868994202e-19,-1.42754831825789
4.625,2.16840434497101e-19,8.67361737988404e-19,-1.85035871546779
4.6875,6.50521303491303e-19,8.67361737988404e-19,-2.22794174008776
4.75,6.50521303491303e-19,8.67361737988404e-19,-2.55081100104274
4.8125,2.16840434497101e-19,1.73472347597681e-18,-2.81081104977483
4.875,1.0842021724855e-18,8.67361737988404e-19,-3.0013497175326
4.9375,4.33680868994202e-19,8.67361737988404e-19,-3.11758870636262
5,4.33680868994202e-19,8.67361737988404e-19,-3.1565835667055
5.0625,8.67361737988404e-19,8.67361737988404e-19,-3.11736668918762
5.125,6.50521303491303e-19,1.73472347597681e-18,-3.00096999427048
5.1875,8.67361737988404e-19,8.67361737988404e-19,-2.81038728361742
5.25,8.67361737988404e-19,1.73472347597681e-18,-2.55047936497053
5.3125,6.50521303491303e-19,1.73472347597681e-18,-2.22782775330805
5.375,4.33680868994202e-19,8.67361737988404e-19,-1.85054473655899
5.4375,3.25260651745651e-19,0,-1.42804873358906
5.5,2.16840434497101e-19,0,-0.970814147391665
5.5625,1.0842021724855e-19,4.33680868994202e-19,-0.490104427668086
5.625,-4.2351647362715e-22,0,0.00230399873027381
5.6875,-1.0842021724855e-19,-2.16840434497101e-19,0.494400635026109
5.75,-2.16840434497101e-19,0,0.974217759925717
5.8125,-3.25260651745651e-19,-4.33680868994202e-19,1.43010148571677
5.875,-2.16840434497101e-19,0,1.85097406819494
5.9375,0,0,2.22658476512964
6,-6.50521303491303e-19,-1.73472347597681e-18,2.54774629526568
6.0625,-4.33680868994202e-19,-1.73472347597681e-18,2.8065533056473
6.125,-4.33680868994202e-19,-8.67361737988404e-19,2.99657839240821
6.1875,-1.0842021724855e-18,-8.67361737988404e-19,3.11304036689058
6.25,-1.0842021724855e-18,-8.67361737988404e-19,3.15293885158532
6.3125,-8.67361737988404e-19,-8.67361737988404e-19,3.11514913544969
6.375,-6.50521303491303e-19,-8.67361737988404e-19,3.00047165893664
6.4375,-4.33680868994202e-19,-8.67361737988404e-19,2.81163159250417
6.5,-8.67361737988404e-19,-8.67361737988404e-19,2.55322567961799
6.5625,-4.33680868994202e-19,-8.67361737988404e-19,2.23161570682245
6.625,-4.33680868994202e-19,0,1.85477043790615
6.6875,-3.25260651745651e-19,0,1.43206036217985
6.75,-2.16840434497101e-19,-4.33680868994202e-19,0.974011906030147
6.8125,-1.0842021724855e-19,0,0.492029616927004
6.875,4.2351647362715e-22,0,-0.00190391776966199
6.9375,1.0842021724855e-19,2.16840434497101e-19,-0.495540097624754
7,4.33680868994202e-19,4.33680868994202e-19,-0.976678102008452
7.0625,3.25260651745651e-19,4.33680868994202e-19,-1.4334710243266
7.125,4.33680868994202e-19,0,-1.85471614234003
7.1875,4.33680868994202e-19,0,-2.23012261050952
7.25,4.33680868994202e-19,0,-2.55055141813652
7.3125,4.33680868994202e-19,1.73472347597681e-18,-2.80822389471523
7.375,8.67361737988404e-19,1.73472347597681e-18,-2.99689621939029
7.4375,1.30104260698261e-18,1.73472347597681e-18,-3.11199822584327
7.5,8.67361737988404e-19,1.73472347597681e-18,-3.15073527935296
7.5625,6.50521303491303e-19,1.73472347597681e-18,-3.11215219854647
7.625,6.50521303491303e-19,8.67361737988404e-19,-2.99715821313258
7.6875,8.67361737988404e-19,8.67361737988404e-19,-2.80851193473907
7.75,4.33680868994202e-19,1.73472347597681e-18,-2.55076542008275
7.8125,4.33680868994202e-19,8.67361737988404e-19,-2.23016675219281
7.875,4.33680868994202e-19,0,-1.85452124092365
7.9375,4.33680868994202e-19,8.67361737988404e-19,-1.43301237467079
8,2.16840434497101e-19,4.33680868994202e-19,-0.975985003092795
8.0625,1.0842021724855e-19,2.16840434497101e-19,-0.494694798224083
8.125,2.11758236813575e-22,4.2351647362715e-22,-0.0010296851875276
8.1875,-1.0842021724855e-19,0,0.492789514906639
8.25,-2.16840434497101e-19,-4.33680868994202e-19,0.974520698180547
8.3125,-1.0842021724855e-19,-4.33680868994202e-19,1.43221493543009
8.375,-2.16840434497101e-19,-8.67361737988404e-19,1.85452399370482
8.4375,-6.50521303491303e-19,-1.73472347597681e-18,2.23099133142603
8.5,-4.33680868994202e-19,-8.67361737988404e-19,2.55231770654104
8.5625,-8.67361737988404e-19,-8.67361737988404e-19,2.81059373193614
8.625,-6.50521303491303e-19,0,2.99949324871412
8.6875,-8.67361737988404e-19,0,3.11442311438559
8.75,-8.67361737988404e-19,0,3.1526267606935
8.8125,-1.0842021724855e-18,0,3.11324052032889
8.875,-6.50521303491303e-19,-8.67361737988404e-19,2.99730314156922
8.9375,-4.33680868994202e-19,0,2.80772003865092
9,-8.67361737988404e-19,-1.73472347597681e-18,2.54918464775483
9.0625,-4.33680868994202e-19,0,2.22805980591136
9.125,-4.33680868994202e-19,0,1.85222241284514
9.1875,-4.33680868994202e-19,-4.33680868994202e-19,1.43087486633625
9.25,-2.16840434497101e-19,0,0.974326977131174
9.3125,-5.42101086242752e-20,-2.16840434497101e-19,0.493752353446801
9.375,-3.17637355220363e-22,-8.470329472543e-22,0.000923652776386005
9.4375,1.62630325872826e-19,4.33680868994202e-19,-0.492068353305572
9.5,2.16840434497101e-19,4.33680868994202e-19,-0.973106292500331
9.5625,4.33680868994202e-19,4.33680868994202e-19,-1.43034195964765
9.625,4.33680868994202e-19,1.73472347597681e-18,-1.85248934090872
9.6875,4.33680868994202e-19,8.67361737988404e-19,-2.22910736807356
9.75,6.50521303491303e-19,0,-2.55086459906539
9.8125,1.0842021724855e-18,8.67361737988404e-19,-2.80977807834405
9.875,4.33680868994202e-19,8.67361737988404e-19,-2.9994190766991
9.9375,2.16840434497101e-19,8.67361737988404e-19,-3.11507925565252
10,8.67361737988404e-19,8.67361737988404e-19,-3.15389201532698
10.0625,8.67361737988404e-19,8.67361737988404e-19,-3.11490529384355
10.125,8.67361737988404e-19,8.67361737988404e-19,-2.99910378760381
10.1875,6.50521303491303e-19,8.67361737988404e-19,-2.8093803338121
10.25,4.33680868994202e-19,1.73472347597681e-18,-2.55045791547637
10.3125,6.50521303491303e-19,8.67361737988404e-19,-2.22876530376798
10.375,4.33680868994202e-19,0,-1.85227065741173
10.4375,5.42101086242752e-19,4.33680868994202e-19,-1.43027840222788
10.5,2.16840434497101e-19,0,-0.973195402041572
10.5625,1.62630325872826e-19,2.16840434497101e-19,-0.492272826170021
10.625,-1.05879118406788e-22,0,0.000669731941580642
10.6875,0,2.16840434497101e-19,0.493531358864514
10.75,-2.16840434497101e-19,0,0.974221756805137
10.8125,-5.42101086242752e-19,-4.33680868994202e-19,1.43095179665803
10.875,-2.16840434497101e-19,-8.67361737988404e-19,1.85251664852307
10.9375,-6.50521303491303e-19,-8.67361737988404e-19,2.22856559987584
11,-6.50521303491303e-19,-8.67361737988404e-19,2.54985280426126
11.0625,-8.67361737988404e-19,-8.67361737988404e-19,2.80846334970459
11.125,-8.67361737988404e-19,-8.67361737988404e-19,2.9980092451267
11.1875,-6.50521303491303e-19,-8.67361737988404e-19,3.1137902522564
11.25,-8.67361737988404e-19,-1.73472347597681e-18,3.1529149943505
11.3125,-4.33680868994202e-19,-8.67361737988404e-19,3.11437849221209
11.375,-1.0842021724855e-18,-8.67361737988404e-19,2.99909323087305
11.4375,-4.33680868994202e-19,-8.67361737988404e-19,2.80987203735214
11.5,-4.33680868994202e-19,-8.67361737988404e-19,2.55136241256876
11.5625,-6.50521303491303e-19,-8.67361737988404e-19,2.22993344428531
11.625,-2.16840434497101e-19,0,1.85351794936261
11.6875,-3.25260651745651e-19,0,1.43141395972959
11.75,-2.16840434497101e-19,-4.33680868994202e-19,0.974050985933842
11.8125,-1.62630325872826e-19,-2.16840434497101e-19,0.492727585710069
11.875,5.29395592033938e-23,2.11758236813575e-22,-0.000672425657280683
11.9375,1.0842021724855e-19,4.33680868994202e-19,-0.493977293033634
12,3.25260651745651e-19,4.33680868994202e-19,-0.975030162799617
12.0625,3.25260651745651e-19,4.33680868994202e-19,-1.43198956481276
12.125,6.50521303491303e-19,0,-1.85362002397592
12.1875,6.50521303491303e-19,8.67361737988404e-19,-2.22956585489583
12.25,4.33680868994202e-19,8.67361737988404e-19,-2.55060188732362
12.3125,6.50521303491303e-19,1.73472347597681e-18,-2.80885563579625
12.375,8.67361737988404e-19,0,-2.99799621792625
12.4375,6.50521303491303e-19,8.67361737988404e-19,-3.11338611265656
12.5,1.0842021724855e-18,1.73472347597681e-18,-3.15219262157175
12.5625,6.50521303491303e-19,1.73472347597681e-18,-3.11345665903972
12.625,1.0842021724855e-18,1.73472347597681e-18,-2.99811726906177
12.6875,8.67361737988404e-19,8.67361737988404e-19,-2.8089910728124
12.75,8.67361737988404e-19,8.67361737988404e-19,-2.55070671419143
12.8125,6.50521303491303e-19,1.73472347597681e-18,-2.22959530613701
12.875,4.33680868994202e-19,0,-1.85353888879635
12.9375,3.25260651745651e-19,4.33680868994202e-19,-1.43177997548671
13,3.25260651745651e-19,4.33680868994202e-19,-0.974696349609645
13.0625,1.62630325872826e-19,0,-0.493546336066403
13.125,6.61744490042422e-23,1.05879118406788e-22,-0.000190744918507347
13.1875,-5.42101086242752e-20,-2.16840434497101e-19,0.493201489565905
13.25,-3.25260651745651e-19,-4.33680868994202e-19,0.974456333126772
13.3125,-4.33680868994202e-19,-4.33680868994202e-19,1.43169833353694
13.375,-4.33680868994202e-19,0,1.85364687477469
13.4375,-4.33680868994202e-19,-8.67361737988404e-19,2.22989713037907
13.5,-8.67361737988404e-19,-8.67361737988404e-19,2.55117833606081
13.5625,-6.50521303491303e-19,0,2.80958274270127
13.625,-4.33680868994202e-19,-1.73472347597681e-18,2.99875955209988
13.6875,-8.67361737988404e-19,-8.67361737988404e-19,3.11406922181773
13.75,-2.16840434497101e-19,-1.73472347597681e-18,3.15269469192567
13.8125,-8.67361737988404e-19,-8.67361737988404e-19,3.11370727881169
13.875,-6.50521303491303e-19,0,2.99808615196626
13.9375,-4.33680868994202e-19,-1.73472347597681e-18,2.80869142410381
14,-4.33680868994202e-19,0,2.55019192246516
14.0625,-4.33680868994202e-19,0,2.22894966225897
14.125,-4.33680868994202e-19,-8.67361737988404e-19,1.85286391482125
14.1875,-1.0842021724855e-19,-8.67361737988404e-19,1.43117856209769
14.25,-2.16840434497101e-19,0,0.974257165448214
14.3125,-1.62630325872826e-19,-2.16840434497101e-19,0.493330856888392
14.375,-2.64697796016969e-23,-1.05879118406788e-22,0.00022478373197933
14.4375,1.0842021724855e-19,2.16840434497101e-19,-0.492930607210616
14.5,3.25260651745651e-19,4.33680868994202e-19,-0.973996692176295
14.5625,2.16840434497101e-19,8.67361737988404e-19,-1.43112509392143
14.625,4.33680868994202e-19,8.67361737988404e-19,-1.85305009574508
14.6875,6.50521303491303e-19,8.67361737988404e-19,-2.22936771063884
14.75,6.50521303491303e-19,1.73472347597681e-18,-2.55079425135555
14.8125,1.0842021724855e-18,8.67361737988404e-19,-2.80939765173403
14.875,8.67361737988404e-19,8.67361737988404e-19,-2.99879542123014
14.9375,6.50521303491303e-19,0,-3.11431396185233
15,8.67361737988404e-19,1.73472347597681e-18,-3.1531050128793
15.0625,8.67361737988404e-19,1.73472347597681e-18,-3.11421617373505
15.125,2.16840434497101e-19,0,-2.99861373914493
15.1875,4.33680868994202e-19,8.67361737988404e-19,-2.80915740774505
15.25,4.33680868994202e-19,0,-2.55052773990502
15.3125,4.33680868994202e-19,0,-2.22910849140219
15.375,2.16840434497101e-19,0,-1.85282709401604
15.4375,2.16840434497101e-19,0,-1.43095756051118
15.5,2.16840434497101e-19,0,-0.973890940454534
15.5625,2.16840434497101e-19,4.33680868994202e-19,-0.492879137050479
15.625,-7.94093388050907e-23,0,0.000241584548460093
15.6875,-1.0842021724855e-19,-2.16840434497101e-19,0.493340701893657
15.75,-4.33680868994202e-19,-4.33680868994202e-19,0.974290235967978
15.8125,-2.16840434497101e-19,-8.67361737988404e-19,1.43126124243273
15.875,-4.33680868994202e-19,-1.73472347597681e-18,1.85301302362962
15.9375,-4.33680868994202e-19,-1.73472347597681e-18,2.22916824813722
16,-8.67361737988404e-19,-8.67361737988404e-19,2.55046744312195
16.0625,-6.50521303491303e-19,-1.73472347597681e-18,2.8089967299297
16.125,-1.30104260698261e-18,-1.73472347597681e-18,2.99838321191736
16.1875,-8.67361737988404e-19,-2.60208521396521e-18,3.11395310085973
16.25,-1.0842021724855e-18,-8.67361737988404e-19,3.15284848569653
16.3125,-8.67361737988404e-19,-8.67361737988404e-19,3.11409959931747
16.375,-2.16840434497101e-19,-1.73472347597681e-18,2.99865051110855
16.4375,-4.33680868994202e-19,-8.67361737988404e-19,2.80933734100455
16.5,-6.50521303491303e-19,-1.73472347597681e-18,2.5508193214897
16.5625,-6.50521303491303e-19,-8.67361737988404e-19,2.22946428652186
16.625,-4.33680868994202e-19,0,1.8531913951617
16.6875,-3.25260651745651e-19,-4.33680868994202e-19,1.43127505592503
16.75,-1.0842021724855e-19,-4.33680868994202e-19,0.97411506118163
16.8125,-1.62630325872826e-19,-2.16840434497101e-19,0.492978830823586
16.875,5.29395592033938e-23,1.05879118406788e-22,-0.000277628817435297
16.9375,1.0842021724855e-19,2.16840434497101e-19,-0.493502940503261
17,3.25260651745651e-19,4.33680868994202e-19,-0.974550342107809
17.0625,4.33680868994202e-19,4.33680868994202e-19,-1.43157695394022
17.125,6.50521303491303e-19,0,-1.85333495042626
17.1875,4.33680868994202e-19,8.67361737988404e-19,-2.2294475514266
17.25,6.50521303491303e-19,1.73472347597681e-18,-2.55066319952055
17.3125,6.50521303491303e-19,8.67361737988404e-19,-2.80908187713457
17.375,8.67361737988404e-19,8.67361737988404e-19,-2.99834822017887
17.4375,6.50521303491303e-19,0,-3.11380688404234
17.5,8.67361737988404e-19,8.67361737988404e-19,-3.15261649755077
17.5625,8.67361737988404e-19,8.67361737988404e-19,-3.11381948761353
17.625,4.33680868994202e-19,0,-2.99836606010335
17.6875,4.33680868994202e-19,0,-2.80909166934515
17.75,4.33680868994202e-19,8.67361737988404e-19,-2.5506483859907
17.8125,6.50521303491303e-19,0,-2.22939166432868
17.875,4.33680868994202e-19,8.67361737988404e-19,-1.85322509426391
17.9375,2.16840434497101e-19,4.33680868994202e-19,-1.43140677481794
18,1.0842021724855e-19,0,-0.974321935644087
18.0625,1.0842021724855e-19,2.16840434497101e-19,-0.493227328771963
18.125,-3.30872245021211e-24,-6.61744490042422e-24,2.63178388399253e-05
18.1875,-1.62630325872826e-19,-4.33680868994202e-19,0.493286880789322
18.25,-3.25260651745651e-19,-8.67361737988404e-19,0.974401121840391
18.3125,-4.33680868994202e-19,-4.33680868994202e-19,1.43151510686693
18.375,-4.33680868994202e-19,-8.67361737988404e-19,1.85336718631268
18.4375,-6.50521303491303e-19,-8.67361737988404e-19,2.22956615924364
18.5,-6.50521303491303e-19,0,2.5508476479865
18.5625,-6.50521303491303e-19,-8.67361737988404e-19,2.80930230441672
18.625,-6.50521303491303e-19,0,2.99857022835732
18.6875,-8.67361737988404e-19,-8.67361737988404e-19,3.1139968743963
18.75,-8.67361737988404e-19,-1.73472347597681e-18,3.15274672404952
18.8125,-8.67361737988404e-19,-8.67361737988404e-19,3.11387207340704
18.875,-6.50521303491303e-19,0,2.99833540131611
18.9375,-4.33680868994202e-19,-1.73472347597681e-18,2.80898491157021
19,-6.50521303491303e-19,-1.73472347597681e-18,2.5504839596383
19.0625,-2.16840434497101e-19,0,2.22919615875846
19.125,-4.33680868994202e-19,0,1.85302899323195
19.1875,-2.16840434497101e-19,-1.30104260698261e-18,1.43123973208467
19.25,-2.16840434497101e-19,0,0.974208318595615
19.3125,-1.0842021724855e-19,0,0.493182695436161
19.375,-2.06795153138257e-25,0,2.69586138649153e-06
19.4375,1.0842021724855e-19,-2.16840434497101e-19,-0.493190827383108
19.5,4.33680868994202e-19,4.33680868994202e-19,-0.974254568034867
19.5625,3.25260651745651e-19,4.33680868994202e-19,-1.43134172469899
19.625,4.33680868994202e-19,0,-1.85319398784819
19.6875,6.50521303491303e-19,8.67361737988404e-19,-2.22941931357517
19.75,2.16840434497101e-19,1.73472347597681e-18,-2.55074855186734
19.8125,8.67361737988404e-19,0,-2.80926449270066
19.875,6.50521303491303e-19,8.67361737988404e-19,-2.99859756581098
19.9375,6.50521303491303e-19,8.67361737988404e-19,-3.11408326347416
20,6.50521303491303e-19,1.73472347597681e-18,-3.1528773270439
20.0625,6.50521303491303e-19,1.73472347597681e-18,-3.11402581857197
20.125,4.33680868994202e-19,8.67361737988404e-19,-2.99848835547757
20.1875,6.50521303491303e-19,8.67361737988404e-19,-2.80911398338599
20.25,4.33680868994202e-19,8.67361737988404e-19,-2.55057036387368
20.3125,4.33680868994202e-19,0,-2.22922812525052
20.375,4.33680868994202e-19,0,-1.85300333394549
20.4375,2.16840434497101e-19,4.33680868994202e-19,-1.43116206389961
20.5,2.16840434497101e-19,4.33680868994202e-19,-0.974091948727989
20.5625,1.0842021724855e-19,2.16840434497101e-19,-0.493046378292453
20.625,-3.97046694025453e-23,-5.29395592033938e-23,0.000132365616330612
20.6875,-1.0842021724855e-19,-4.33680868994202e-19,0.493304259909617
20.75,-2.16840434497101e-19,4.33680868994202e-19,0.974329881858368
20.8125,-5.42101086242752e-19,-8.67361737988404e-19,1.43136868841349
20.875,-4.33680868994202e-19,0,1.85316998574189
20.9375,-2.16840434497101e-19,-8.67361737988404e-19,2.22934951109227
21,0,-8.67361737988404e-19,2.55064488014855
21.0625,-6.50521303491303e-19,-1.73472347597681e-18,2.80914364130257
21.125,-4.33680868994202e-19,-8.67361737988404e-19,2.99847831688852
21.1875,-8.67361737988404e-19,-1.73472347597681e-18,3.11398359017175
21.25,-2.16840434497101e-19,0,3.15281170171762
21.3125,-8.67361737988404e-19,0,3.11400313130522
21.375,-6.50521303491303e-19,0,2.99851073903655
21.4375,-8.67361737988404e-19,-8.67361737988404e-19,2.80917669483753
21.5,-4.33680868994202e-19,-8.67361737988404e-19,2.55066270886694
21.5625,-8.67361737988404e-19,0,2.22933525381274
21.625,-6.50521303491303e-19,-8.67361737988404e-19,1.8531086101001
21.6875,-2.16840434497101e-19,-4.33680868994202e-19,1.43124963368117
21.75,-2.16840434497101e-19,-4.33680868994202e-19,0.974149112513272
21.8125,-1.0842021724855e-19,-2.16840434497101e-19,0.493065414836321
21.875,3.97046694025453e-23,5.29395592033938e-23,-0.000153182552382588
21.9375,5.42101086242752e-20,4.33680868994202e-19,-0.493360581605344
22,1.0842021724855e-19,0,-0.974412125175373
22.0625,2.16840434497101e-19,4.33680868994202e-19,-1.43146364201972
22.125,2.16840434497101e-19,8.67361737988404e-19,-1.85326291617298
22.1875,6.50521303491303e-19,8.67361737988404e-19,-2.22942643528522
22.25,4.33680868994202e-19,1.73472347597681e-18,-2.55069465598668
22.3125,6.50521303491303e-19,8.67361737988404e-19,-2.80915956573095
22.375,8.67361737988404e-19,8.67361737988404e-19,-2.99845900494501
22.4375,6.50521303491303e-19,8.67361737988404e-19,-3.11393302379233
22.5,4.33680868994202e-19,1.73472347597681e-18,-3.15273846599534
22.5625,6.50521303491303e-19,8.67361737988404e-19,-3.11391897814617
22.625,4.33680868994202e-19,1.73472347597681e-18,-2.99842871557884
22.6875,4.33680868994202e-19,1.73472347597681e-18,-2.80910913261185
22.75,6.50521303491303e-19,8.67361737988404e-19,-2.55061938178912
22.8125,6.50521303491303e-19,1.73472347597681e-18,-2.22932197828726
22.875,2.16840434497101e-19,8.67361737988404e-19,-1.85312648545112
22.9375,4.33680868994202e-19,4.33680868994202e-19,-1.43129501837632
23,4.33680868994202e-19,8.67361737988404e-19,-0.974214317566971
23.0625,1.0842021724855e-19,0,-0.49313998795914
23.125,-1.32348898008484e-23,-2.64697796016969e-23,8.07939553963103e-05
23.1875,-1.0842021724855e-19,-2.16840434497101e-19,0.493301251340928
23.25,-3.25260651745651e-19,-4.33680868994202e-19,0.974374425442076
23.3125,-2.16840434497101e-19,-8.67361737988404e-19,1.43145261739512
23.375,-4.33680868994202e-19,0,1.85327942771292
23.4375,-4.33680868994202e-19,-8.67361737988404e-19,2.22946715665367
23.5,-4.33680868994202e-19,0,2.55075270252167
23.5625,-1.0842021724855e-18,-8.67361737988404e-19,2.80922564227853
23.625,-8.67361737988404e-19,-8.67361737988404e-19,2.998522883338
23.6875,-8.67361737988404e-19,-1.73472347597681e-18,3.11398511674083
23.75,-2.16840434497101e-19,-1.73472347597681e-18,3.15277125662575
23.8125,-6.50521303491303e-19,-8.67361737988404e-19,3.11392809350539
23.875,-6.50521303491303e-19,-1.73472347597681e-18,2.99841349261523
23.9375,-8.67361737988404e-19,-8.67361737988404e-19,2.80907260641607
24,-8.67361737988404e-19,-1.73472347597681e-18,2.55056771530747
24.0625,-6.50521303491303e-19,0,2.22926343654877
24.125,-2.16840434497101e-19,-8.67361737988404e-19,1.85307012307429
24.1875,-2.16840434497101e-19,-4.33680868994202e-19,1.43124928735935
24.25,-3.25260651745651e-19,0,0.974185808165614
24.3125,-1.0842021724855e-19,0,0.493132488919833
24.375,6.61744490042422e-24,0,-6.67834217855222e-05
24.4375,1.0842021724855e-19,4.33680868994202e-19,-0.493268497726297
24.5,2.16840434497101e-19,0,-0.97432844429676
24.5625,3.25260651745651e-19,0,-1.43140075682518
24.625,6.50521303491303e-19,8.67361737988404e-19,-1.85322970259081
24.6875,4.33680868994202e-19,0,-2.22942701724701
24.75,4.33680868994202e-19,1.73472347597681e-18,-2.55072792561046
24.8125,6.50521303491303e-19,0,-2.80921950864369
24.875,8.67361737988404e-19,8.67361737988404e-19,-2.99853575728083
24.9375,6.50521303491303e-19,8.67361737988404e-19,-3.11401447904597
25,4.33680868994202e-19,8.67361737988404e-19,-3.15281217230101
25.0625,8.67361737988404e-19,8.67361737988404e-19,-3.11397403048988
25.125,6.50521303491303e-19,1.73472347597681e-18,-2.99845735713655
25.1875,2.16840434497101e-19,8.67361737988404e-19,-2.80910783198955
25.25,8.67361737988404e-19,8.67361737988404e-19,-2.55058923918373
25.3125,6.50521303491303e-19,0,-2.2292684194401
25.375,4.33680868994202e-19,8.67361737988404e-19,-1.85305831113957
25.4375,3.25260651745651e-19,4.33680868994202e-19,-1.43122297253794
25.5,2.16840434497101e-19,-4.33680868994202e-19,-0.9741494049778
25.5625,1.62630325872826e-19,2.16840434497101e-19,-0.493091803263336
25.625,-2.64697796016969e-23,-2.64697796016969e-23,0.000105473680067066
25.6875,-1.62630325872826e-19,-4.33680868994202e-19,0.493299405736898
25.75,-2.16840434497101e-19,-4.33680868994202e-19,0.974347133947724
25.8125,-4.33680868994202e-19,-8.67361737988404e-19,1.43140477238493
25.875,-4.33680868994202e-19,-8.67361737988404e-19,1.85321888006439
25.9375,-6.50521303491303e-19,0,2.22940343999595
26,-6.50521303491303e-19,-1.73472347597681e-18,2.5506955416808
26.0625,-1.0842021724855e-18,-1.73472347597681e-18,2.80918347784147
26.125,-8.67361737988404e-19,-1.73472347597681e-18,2.99850163482579
26.1875,-8.67361737988404e-19,-1.73472347597681e-18,3.11398736410485
26.25,-4.33680868994202e-19,-8.67361737988404e-19,3.15279595113892
26.3125,-4.33680868994202e-19,0,3.11397082576279
26.375,-1.0842021724855e-18,-8.67361737988404e-19,2.99846726032963
26.4375,-6.50521303491303e-19,-8.67361737988404e-19,2.80912895089105
26.5,-2.16840434497101e-19,0,2.55061804371289
26.5625,-6.50521303491303e-19,-8.67361737988404e-19,2.22930032456081
26.625,-6.50521303491303e-19,-8.67361737988404e-19,1.85308840161263
26.6875,-1.0842021724855e-19,-4.33680868994202e-19,1.43124675570258
26.75,-2.16840434497101e-19,-4.33680868994202e-19,0.974163476952183
26.8125,-1.62630325872826e-19,-2.16840434497101e-19,0.493094330497669
26.875,2.64697796016969e-23,0,-0.000114524699786774
26.9375,1.62630325872826e-19,4.33680868994202e-19,-0.493318317748207
27,2.16840434497101e-19,4.33680868994202e-19,-0.974372751271138
27.0625,1.0842021724855e-19,4.33680868994202e-19,-1.43143302123659
27.125,4.33680868994202e-19,8.67361737988404e-19,-1.85324541191524
27.1875,6.50521303491303e-19,0,-2.22942429703545
27.25,4.33680868994202e-19,8.67361737988404e-19,-2.55070774314956
27.3125,6.50521303491303e-19,8.67361737988404e-19,-2.80918544101211
27.375,4.33680868994202e-19,1.73472347597681e-18,-2.99849337200065
27.4375,8.67361737988404e-19,8.67361737988404e-19,-3.11397043261987
27.5,1.30104260698261e-18,1.73472347597681e-18,-3.15277317138245
27.5625,1.0842021724855e-18,1.73472347597681e-18,-3.11394581682598
27.625,1.0842021724855e-18,0,-2.9984438689663
27.6875,2.16840434497101e-19,8.67361737988404e-19,-2.80911066330598
27.75,6.50521303491303e-19,0,-2.55060746958981
27.8125,4.33680868994202e-19,1.73472347597681e-18,-2.22929882912678
27.875,2.16840434497101e-19,0,-1.85309593687484
27.9375,3.25260651745651e-19,4.33680868994202e-19,-1.43126191035187
28,1.0842021724855e-19,8.67361737988404e-19,-0.974183730791016
28.0625,1.62630325872826e-19,2.16840434497101e-19,-0.493116468771452
28.125,-2.64697796016969e-23,-2.64697796016969e-23,9.39045113152239e-05
28.1875,-1.0842021724855e-19,-2.16840434497101e-19,0.493302286058335
28.25,-3.25260651745651e-19,-4.33680868994202e-19,0.974363592392002
28.3125,-3.25260651745651e-19,-4.33680868994202e-19,1.43143191188684
28.375,-2.16840434497101e-19,0,1.85325227681457
28.4375,-4.33680868994202e-19,-8.67361737988404e-19,2.22943785806642
28.5,-6.50521303491303e-19,0,2.55072574881383
28.5625,-4.33680868994202e-19,-1.73472347597681e-18,2.8092050360649
28.625,-4.33680868994202e-19,-8.67361737988404e-19,2.99851154717059
28.6875,-8.67361737988404e-19,0,3.11398448403372
28.75,-6.50521303491303e-19,-1.73472347597681e-18,3.15278109997171
28.8125,-8.67361737988404e-19,-1.73472347597681e-18,3.11394660916559
28.875,-8.67361737988404e-19,-1.73472347597681e-18,2.99843762068233
28.9375,-6.50521303491303e-19,-8.67361737988404e-19,2.80909853115362
29,-8.67361737988404e-19,-8.67361737988404e-19,2.55059146461406
29.0625,-6.50521303491303e-19,-8.67361737988404e-19,2.22928148696128
29.125,-4.33680868994202e-19,0,1.85307991871202
29.1875,-4.33680868994202e-19,0,1.43124959698047
29.25,-2.16840434497101e-19,0,0.974176871261955
29.3125,-2.16840434497101e-19,-2.16840434497101e-19,0.493115935137457
29.375,1.98523347012727e-23,2.64697796016969e-23,-8.82225170748555e-05
29.4375,5.42101086242752e-20,2.16840434497101e-19,-0.493291434712564
29.5,1.0842021724855e-19,0,-0.974349367613993
29.5625,4.33680868994202e-19,4.33680868994202e-19,-1.43141656520609
29.625,4.33680868994202e-19,8.67361737988404e-19,-1.85323816135853
29.6875,4.33680868994202e-19,8.67361737988404e-19,-2.22942706987703
29.75,6.50521303491303e-19,8.67361737988404e-19,-2.55071981784218
29.8125,1.0842021724855e-18,8.67361737988404e-19,-2.80920471204127
29.875,4.33680868994202e-19,8.67361737988404e-19,-2.99851670984814
29.9375,1.0842021724855e-18,1.73472347597681e-18,-3.11399418761631
30,6.50521303491303e-19,8.67361737988404e-19,-3.15279374096212
30.0625,4.33680868994202e-19,1.73472347597681e-18,-3.1139601885432
30.125,4.33680868994202e-19,8.67361737988404e-19,-2.9984500579422
30.1875,6.50521303491303e-19,8.67361737988404e-19,-2.80910798118201
30.25,8.67361737988404e-19,0,-2.55059658942763
30.3125,4.33680868994202e-19,8.67361737988404e-19,-2.22928164260492
30.375,2.16840434497101e-19,1.73472347597681e-18,-1.85307523163122
30.4375,3.25260651745651e-19,4.33680868994202e-19,-1.43124092166167
30.5,2.16840434497101e-19,4.33680868994202e-19,-0.974165639126814
30.5625,5.42101086242752e-20,0,-0.493103920807102
30.625,-1.98523347012727e-23,-2.64697796016969e-23,9.91797695994673e-05
30.6875,-1.0842021724855e-19,-4.33680868994202e-19,0.49329971087304
30.75,-2.16840434497101e-19,-8.67361737988404e-19,0.974353792860875
30.8125,-3.25260651745651e-19,-4.33680868994202e-19,1.43141658699242
30.875,-2.16840434497101e-19,0,1.85323390928589
30.9375,-8.67361737988404e-19,-1.73472347597681e-18,2.22941931552343
31,-6.50521303491303e-19,-8.67361737988404e-19,2.55070983878226
31.0625,-6.50521303491303e-19,0,2.80919408350194
31.125,-8.67361737988404e-19,-1.73472347597681e-18,2.9985070576696
31.1875,-4.33680868994202e-19,0,3.11398694101905
31.25,-8.67361737988404e-19,-8.67361737988404e-19,3.15278992248961
31.3125,-8.67361737988404e-19,-1.73472347597681e-18,3.11396027180346
31.375,-8.67361737988404e-19,-8.67361737988404e-19,2.99845391260009
31.4375,-4.33680868994202e-19,-8.67361737988404e-19,2.80911491088305
31.5,-4.33680868994202e-19,-8.67361737988404e-19,2.55060545411669
31.5625,-4.33680868994202e-19,0,2.22929104420781
31.625,-4.33680868994202e-19,0,1.85308373312597
31.6875,-2.16840434497101e-19,-4.33680868994202e-19,1.43124726542389
31.75,-2.16840434497101e-19,-4.33680868994202e-19,0.974168931573842
31.8125,-1.62630325872826e-19,-2.16840434497101e-19,0.493103756454837
31.875,1.32348898008484e-23,2.64697796016969e-23,-0.000102671758693349
31.9375,1.62630325872826e-19,0,-0.493305902345712
32,2.16840434497101e-19,0,-0.974361666660881
32.0625,3.25260651745651e-19,4.33680868994202e-19,-1.43142490241891
32.125,6.50521303491303e-19,1.73472347597681e-18,-1.85324139634125
32.1875,6.50521303491303e-19,0,-2.22942486772521
32.25,2.16840434497101e-19,0,-2.55071267544637
32.3125,8.67361737988404e-19,8.67361737988404e-19,-2.80919385789101
32.375,6.50521303491303e-19,1.73472347597681e-18,-2.99850389629691
32.4375,4.33680868994202e-19,8.67361737988404e-19,-3.1139814102472
32.5,8.67361737988404e-19,8.67361737988404e-19,-3.15278292966447
32.5625,6.50521303491303e-19,0,-3.11395291784049
32.625,6.50521303491303e-19,1.73472347597681e-18,-2.99844731976671
32.6875,6.50521303491303e-19,1.73472347597681e-18,-2.80911005255138
32.75,4.33680868994202e-19,1.73472347597681e-18,-2.55060301215633
32.8125,4.33680868994202e-19,8.67361737988404e-19,-2.22929131473532
32.875,2.16840434497101e-19,8.67361737988404e-19,-1.85308659339621
32.9375,3.25260651745651e-19,4.33680868994202e-19,-1.43125220502111
33,2.16840434497101e-19,4.33680868994202e-19,-0.974175141248043
33.0625,5.42101086242752e-20,2.16840434497101e-19,-0.493110259437761
33.125,-2.64697796016969e-23,-2.64697796016969e-23,9.68670829777652e-05
33.1875,-1.0842021724855e-19,-2.16840434497101e-19,0.493301652134793
33.25,-3.25260651745651e-19,-4.33680868994202e-19,0.974359566315388
33.3125,-5.42101086242752e-19,-8.67361737988404e-19,1.43142520447175
33.375,-4.33680868994202e-19,-8.67361737988404e-19,1.85324398264161
33.4375,-4.33680868994202e-19,-8.67361737988404e-19,2.22942927848077
33.5,-6.50521303491303e-19,-8.67361737988404e-19,2.55071818902
33.5625,-8.67361737988404e-19,-1.73472347597681e-18,2.80919960776075
33.625,-6.50521303491303e-19,0,2.99850900638174
33.6875,-1.0842021724855e-18,0,3.11398512759347
33.75,-8.67361737988404e-19,-8.67361737988404e-19,3.15278473451996
33.8125,-1.0842021724855e-18,-8.67361737988404e-19,3.11395259516423
33.875,-2.16840434497101e-19,-8.67361737988404e-19,2.99844498253113
33.9375,-4.33680868994202e-19,-8.67361737988404e-19,2.80910611476979
34,-6.50521303491303e-19,-8.67361737988404e-19,2.55059811723005
34.0625,-4.33680868994202e-19,0,2.22928623129689
34.125,-2.16840434497101e-19,0,1.85308209536988
34.1875,-2.16840434497101e-19,-4.33680868994202e-19,1.43124895450434
34.25,-2.16840434497101e-19,4.33680868994202e-19,0.974173591826153
34.3125,-5.42101086242752e-20,-2.16840434497101e-19,0.493110593929091
34.375,3.30872245021211e-23,2.64697796016969e-23,-9.47560840137017e-05
34.4375,1.0842021724855e-19,0,-0.493298137267031
34.5,3.25260651745651e-19,4.33680868994202e-19,-0.974355221131956
34.5625,6.50521303491303e-19,8.67361737988404e-19,-1.43142071069749
34.625,4.33680868994202e-19,8.67361737988404e-19,-1.85324002388295
34.6875,4.33680868994202e-19,8.67361737988404e-19,-2.22942643685902
34.75,8.67361737988404e-19,8.67361737988404e-19,-2.55071686026086
34.8125,8.67361737988404e-19,8.67361737988404e-19,-2.8091999470157
34.875,1.0842021724855e-18,8.67361737988404e-19,-2.99851091204105
34.9375,8.67361737988404e-19,8.67361737988404e-19,-3.11398826439079
35,4.33680868994202e-19,8.67361737988404e-19,-3.15278859125132
35.0625,6.50521303491303e-19,1.73472347597681e-18,-3.11395656725347
35.125,4.33680868994202e-19,0,-2.99844846621432
35.1875,8.67361737988404e-19,1.73472347597681e-18,-2.80910859831481
35.25,8.67361737988404e-19,8.67361737988404e-19,-2.55059925549456
35.3125,4.33680868994202e-19,0,-2.22928589286055
35.375,4.33680868994202e-19,8.67361737988404e-19,-1.85308037594493
35.4375,4.33680868994202e-19,0,-1.43124615561653
35.5,2.16840434497101e-19,4.33680868994202e-19,-0.974170169035384
35.5625,1.0842021724855e-19,2.16840434497101e-19,-0.493107083334161
35.625,-1.98523347012727e-23,-5.29395592033938e-23,9.78212940915124e-05
35.6875,-1.0842021724855e-19,-4.33680868994202e-19,0.493300307303771
35.75,-2.16840434497101e-19,-4.33680868994202e-19,0.974356195064134
35.8125,-4.33680868994202e-19,0,1.43142037743736
35.875,-4.33680868994202e-19,0,1.8532384732447
35.9375,-4.33680868994202e-19,-8.67361737988404e-19,2.22942393992317
36,-4.33680868994202e-19,0,2.55071382293587
36.0625,-8.67361737988404e-19,-8.67361737988404e-19,2.80919684462623
36.125,-8.67361737988404e-19,-8.67361737988404e-19,2.99850821539972
36.1875,-4.33680868994202e-19,-8.67361737988404e-19,3.11398636878249
36.25,-8.67361737988404e-19,-1.73472347597681e-18,3.15278775897531
36.3125,-4.33680868994202e-19,-1.73472347597681e-18,3.11395689199666
36.375,-1.30104260698261e-18,-8.67361737988404e-19,2.99844986398161
36.4375,-8.67361737988404e-19,-1.73472347597681e-18,2.80911082548523
36.5,-6.50521303491303e-19,-8.67361737988404e-19,2.55060195045564
36.5625,-4.33680868994202e-19,-1.73472347597681e-18,2.22928863421828
36.625,-2.16840434497101e-19,-8.67361737988404e-19,1.85308274801115
36.6875,-3.25260651745651e-19,-1.30104260698261e-18,1.43124781105751
36.75,-1.0842021724855e-19,4.33680868994202e-19,0.974170879299955
36.8125,-1.0842021724855e-19,-2.16840434497101e-19,0.493106769608365
36.875,1.32348898008484e-23,5.29395592033938e-23,-9.90806949974898e-05
36.9375,2.16840434497101e-19,4.33680868994202e-19,-0.493302293512592
37,2.16840434497101e-19,4.33680868994202e-19,-0.974358585979913
37.0625,4.33680868994202e-19,8.67361737988404e-19,-1.43142279951912
37.125,4.33680868994202e-19,8.67361737988404e-19,-1.85324055951448
37.1875,8.67361737988404e-19,1.73472347597681e-18,-2.22942538522778
37.25,8.67361737988404e-19,0,-2.55071442819753
37.3125,8.67361737988404e-19,8.67361737988404e-19,-2.8091965437267
37.375,1.0842021724855e-18,1.73472347597681e-18,-2.99850708116007
37.4375,6.50521303491303e-19,1.73472347597681e-18,-3.1139845977646
37.5,6.50521303491303e-19,0,-3.15278563804207
37.5625,1.30104260698261e-18,1.73472347597681e-18,-3.11395475223462
37.625,1.0842021724855e-18,0,-2.99844802933083
37.6875,8.67361737988404e-19,8.67361737988404e-19,-2.80910956399933
37.75,8.67361737988404e-19,1.73472347597681e-18,-2.550601435479
37.8125,4.33680868994202e-19,8.67361737988404e-19,-2.22928892104749
37.875,2.16840434497101e-19,0,-1.85308376910124
37.9375,4.33680868994202e-19,8.67361737988404e-19,-1.43124938993623
38,2.16840434497101e-19,4.33680868994202e-19,-0.97417276052528
38.0625,1.0842021724855e-19,0,-0.493108659755427
38.125,-3.30872245021211e-23,-2.64697796016969e-23,9.74675443214877e-05
38.1875,-1.0842021724855e-19,-2.16840434497101e-19,0.493301192786026
38.25,-2.16840434497101e-19,-4.33680868994202e-19,0.974358148560344
38.3125,-2.16840434497101e-19,-4.33680868994202e-19,1.43142307149335
38.375,-4.33680868994202e-19,0,1.85324147837119
38.4375,-6.50521303491303e-19,-1.73472347597681e-18,2.22942679258189
38.5,-6.50521303491303e-19,-1.73472347597681e-18,2.55071609662009
38.5625,-6.50521303491303e-19,-1.73472347597681e-18,2.80919821319824
38.625,-8.67361737988404e-19,-1.73472347597681e-18,2.99850849934979
38.6875,-4.33680868994202e-19,-1.73472347597681e-18,3.11398555793201
38.75,-1.0842021724855e-18,0,3.15278600890463
38.8125,-8.67361737988404e-19,-8.67361737988404e-19,3.11395449553064
38.875,-1.0842021724855e-18,-1.73472347597681e-18,2.99844720279434
38.9375,-4.33680868994202e-19,-8.67361737988404e-19,2.80910830973802
39,-4.33680868994202e-19,-8.67361737988404e-19,2.55059995595177
39.0625,-8.67361737988404e-19,-8.67361737988404e-19,2.22928744664658
39.125,-6.50521303491303e-19,-8.67361737988404e-19,1.85308252249076
39.1875,-3.25260651745651e-19,-4.33680868994202e-19,1.43124855263579
39.25,-1.0842021724855e-19,0,0.974172446719205
39.3125,-1.0842021724855e-19,0,0.493108901069052
39.375,3.30872245021211e-23,5.29395592033938e-23,-9.67243329291825e-05
39.4375,1.0842021724855e-19,0,-0.493300075141891
39.5,3.25260651745651e-19,4.33680868994202e-19,-0.974356836687709
39.5625,4.33680868994202e-19,4.33680868994202e-19,-1.43142176951073
39.625,4.33680868994202e-19,8.67361737988404e-19,-1.85324038274234
39.6875,4.33680868994202e-19,8.67361737988404e-19,-2.22942606265636
39.75,6.50521303491303e-19,0,-2.55071583167114
39.8125,8.67361737988404e-19,1.73472347597681e-18,-2.80919843923353
39.875,4.33680868994202e-19,8.67361737988404e-19,-2.998509167392
39.9375,4.33680868994202e-19,8.67361737988404e-19,-3.11398655368372
40,2.16840434497101e-19,0,-3.15278717199264
40.0625,1.0842021724855e-18,8.67361737988404e-19,-3.11395564513301
40.125,1.0842021724855e-18,8.67361737988404e-19,-2.99844816558424
40.1875,8.67361737988404e-19,8.67361737988404e-19,-2.80910894585171
40.25,8.67361737988404e-19,1.73472347597681e-18,-2.55060017911549
40.3125,4.33680868994202e-19,0,-2.22928723559704
40.375,6.50521303491303e-19,8.67361737988404e-19,-1.85308192222733
40.4375,4.33680868994202e-19,4.33680868994202e-19,-1.43124766561987
40.5,2.16840434497101e-19,4.33680868994202e-19,-0.974171415654949
40.5625,1.62630325872826e-19,2.16840434497101e-19,-0.493107886123445
40.625,-1.98523347012727e-23,-2.64697796016969e-23,9.7570262473441e-05
40.6875,-1.62630325872826e-19,-4.33680868994202e-19,0.493300629315028
40.75,-2.16840434497101e-19,0,0.974357024159885
40.8125,-3.25260651745651e-19,-4.33680868994202e-19,1.43142157301718
40.875,-6.50521303491303e-19,-8.67361737988404e-19,1.85323984356613
40.9375,-6.50521303491303e-19,-8.67361737988404e-19,2.22942527262247
41,-4.33680868994202e-19,-1.73472347597681e-18,2.55071491774415
41.0625,-8.67361737988404e-19,-8.67361737988404e-19,2.80919754326999
41.125,-6.50521303491303e-19,-8.67361737988404e-19,2.99850842425233
41.1875,-6.50521303491303e-19,-8.67361737988404e-19,3.11398607106281
41.25,-8.67361737988404e-19,-8.67361737988404e-19,3.15278701496429
41.3125,-4.33680868994202e-19,-8.67361737988404e-19,3.11395582760194
41.375,-6.50521303491303e-19,-1.73472347597681e-18,2.99844864972895
41.4375,-6.50521303491303e-19,0,2.8091096494013
41.5,-6.50521303491303e-19,-8.67361737988404e-19,2.55060098912441
41.5625,-6.50521303491303e-19,0,2.22928802643977
41.625,-4.33680868994202e-19,-8.67361737988404e-19,1.85308257496618
41.6875,-2.16840434497101e-19,-4.33680868994202e-19,1.43124808577732
41.75,-2.16840434497101e-19,-4.33680868994202e-19,0.974171546753935
41.8125,-1.62630325872826e-19,0,0.493107717075233
41.875,1.98523347012727e-23,5.29395592033938e-23,-9.80048519165286e-05
41.9375,1.62630325872826e-19,0,-0.493301255754723
42,2.16840434497101e-19,0,-0.974357741989134
42.0625,4.33680868994202e-19,8.67361737988404e-19,-1.43142227099568
42.125,8.67361737988404e-19,8.67361737988404e-19,-1.85324041681106
42.1875,2.16840434497101e-19,1.73472347597681e-18,-2.22942563826635
42.25,6.50521303491303e-19,8.67361737988404e-19,-2.55071502679445
42.3125,6.50521303491303e-19,1.73472347597681e-18,-2.80919738699031
42.375,8.67361737988404e-19,1.73472347597681e-18,-2.99850803426795
42.4375,8.67361737988404e-19,8.67361737988404e-19,-3.11398551336323
42.5,8.67361737988404e-19,1.73472347597681e-18,-3.15278637889354
42.5625,1.0842021724855e-18,8.67361737988404e-19,-3.11395521165146
42.625,8.67361737988404e-19,1.73472347597681e-18,-2.9984481463771
42.6875,8.67361737988404e-19,8.67361737988404e-19,-2.809109331319
42.75,6.50521303491303e-19,8.67361737988404e-19,-2.55060089879062
42.8125,4.33680868994202e-19,8.67361737988404e-19,-2.22928817063281
42.875,4.33680868994202e-19,0,-1.85308292481686
42.9375,4.33680868994202e-19,4.33680868994202e-19,-1.43124858220783
43,2.16840434497101e-19,4.33680868994202e-19,-0.974172110317462
43.0625,1.0842021724855e-19,2.16840434497101e-19,-0.493108260577261
43.125,-2.64697796016969e-23,0,9.7562942971447e-05
43.1875,0,0,0.493300979156278
43.25,-2.16840434497101e-19,-4.33680868994202e-19,0.97435766751319
43.3125,-3.25260651745651e-19,-8.67361737988404e-19,1.43142240379731
43.375,-4.33680868994202e-19,0,1.85324073056523
43.4375,-6.50521303491303e-19,-1.73472347597681e-18,2.22942608009591
43.5,-6.50521303491303e-19,0,2.55071552606256
43.5625,-8.67361737988404e-19,-1.73472347597681e-18,2.8091978665115
43.625,-8.67361737988404e-19,-8.67361737988404e-19,2.9985084221705
43.6875,-6.50521303491303e-19,-8.67361737988404e-19,3.11398575379036
43.75,-8.67361737988404e-19,-1.73472347597681e-18,3.1527864399614
43.8125,-8.67361737988404e-19,-8.67361737988404e-19,3.11395508954412
43.875,-8.67361737988404e-19,-1.73472347597681e-18,2.99844786507627
43.9375,-8.67361737988404e-19,-8.67361737988404e-19,2.80910893814059
44,-1.0842021724855e-18,-1.73472347597681e-18,2.55060045653015
44.0625,-2.16840434497101e-19,-8.67361737988404e-19,2.22928774760824
44.125,-6.50521303491303e-19,0,1.85308258437716
44.1875,-2.16840434497101e-19,-4.33680868994202e-19,1.43124837330983
44.25,-2.16840434497101e-19,-4.33680868994202e-19,0.974172060561169
44.3125,-5.42101086242752e-20,-2.16840434497101e-19,0.493108372678789
44.375,2.64697796016969e-23,2.64697796016969e-23,-9.73108095475889e-05
44.4375,1.0842021724855e-19,2.16840434497101e-19,-0.493300629320474
44.5,3.25260651745651e-19,4.33680868994202e-19,-0.974357275792935
44.5625,4.33680868994202e-19,4.33680868994202e-19,-1.43142203065536
44.625,0,0,-1.85324043183196
44.6875,6.50521303491303e-19,8.67361737988404e-19,-2.22942589867186
44.75,4.33680868994202e-19,8.67361737988404e-19,-2.55071548582503
44.8125,1.0842021724855e-18,1.73472347597681e-18,-2.80919796928054
44.875,8.67361737988404e-19,8.67361737988404e-19,-2.99850864809926
44.9375,1.0842021724855e-18,0,-3.11398606501844
45,4.33680868994202e-19,0,-3.1527867868801
45.0625,8.67361737988404e-19,8.67361737988404e-19,-3.11395541864822
45.125,4.33680868994202e-19,0,-2.99844812716749
45.1875,4.33680868994202e-19,0,-2.80910909563278
45.25,2.16840434497101e-19,8.67361737988404e-19,-2.55060048877899
45.3125,6.50521303491303e-19,8.67361737988404e-19,-2.22928765352009
45.375,2.16840434497101e-19,8.67361737988404e-19,-1.85308238198379
45.4375,4.33680868994202e-19,0,-1.4312480964665
45.5,3.25260651745651e-19,4.33680868994202e-19,-0.974171753352569
45.5625,1.62630325872826e-19,2.16840434497101e-19,-0.493108082448465
45.625,-1.32348898008484e-23,-2.64697796016969e-23,9.75407128346276e-05
45.6875,-1.0842021724855e-19,0,0.493300765973383
45.75,-2.16840434497101e-19,-4.33680868994202e-19,0.974357301357971
45.8125,-2.16840434497101e-19,-1.30104260698261e-18,1.4314219446217
45.875,-6.50521303491303e-19,0,1.85324025056915
45.9375,-6.50521303491303e-19,-8.67361737988404e-19,2.22942565244752
46,-4.33680868994202e-19,-1.73472347597681e-18,2.55071521381027
46.0625,-4.33680868994202e-19,-8.67361737988404e-19,2.80919771336187
46.125,-1.0842021724855e-18,-8.67361737988404e-19,2.9985084464668
46.1875,-1.0842021724855e-18,-8.67361737988404e-19,3.11398594650545
46.25,-1.0842021724855e-18,-1.73472347597681e-18,3.15278676688842
46.3125,-6.50521303491303e-19,-1.73472347597681e-18,3.11395549722575
46.375,-6.50521303491303e-19,-1.73472347597681e-18,2.99844828946438
46.4375,-6.50521303491303e-19,-1.73472347597681e-18,2.80910931459543
46.5,-2.16840434497101e-19,-8.67361737988404e-19,2.55060072960637
46.5625,-8.67361737988404e-19,-1.73472347597681e-18,2.2292878791573
46.625,-4.33680868994202e-19,0,1.85308255878983
46.6875,-3.25260651745651e-19,0,1.43124819919513
46.75,-1.0842021724855e-19,-4.33680868994202e-19,0.974171768714764
46.8125,-1.0842021724855e-19,-2.16840434497101e-19,0.493108010759159
46.875,3.97046694025453e-23,5.29395592033938e-23,-9.76859924337857e-05
46.9375,1.62630325872826e-19,2.16840434497101e-19,-0.493300960667059
47,3.25260651745651e-19,4.33680868994202e-19,-0.974357514551211
47.0625,2.16840434497101e-19,8.67361737988404e-19,-1.43142214353724
47.125,4.33680868994202e-19,8.67361737988404e-19,-1.85324040557693
47.1875,4.33680868994202e-19,0,-2.22942574144699
47.25,6.50521303491303e-19,1.73472347597681e-18,-2.55071522534359
47.3125,6.50521303491303e-19,8.67361737988404e-19,-2.80919764802386
47.375,8.67361737988404e-19,1.73472347597681e-18,-2.99850831645162
47.4375,6.50521303491303e-19,1.73472347597681e-18,-3.11398577341363
47.5,8.67361737988404e-19,1.73472347597681e-18,-3.15278657817849
47.5625,4.33680868994202e-19,1.73472347597681e-18,-3.11395532188785
47.625,1.0842021724855e-18,8.67361737988404e-19,-2.99844815359295
47.6875,8.67361737988404e-19,8.67361737988404e-19,-2.80910923753294
47.75,1.0842021724855e-18,8.67361737988404e-19,-2.5506007212241
47.8125,6.50521303491303e-19,8.67361737988404e-19,-2.22928793864919
47.875,6.50521303491303e-19,8.67361737988404e-19,-1.85308267511701
47.9375,4.33680868994202e-19,0,-1.43124835306212
48,2.16840434497101e-19,0,-0.974171935735536
48.0625,1.0842021724855e-19,4.33680868994202e-19,-0.493108165295867
48.125,-3.97046694025453e-23,-7.94093388050907e-23,9.75669177731247e-05
48.1875,-1.0842021724855e-19,0,0.493300893979012
48.25,-3.25260651745651e-19,-8.67361737988404e-19,0.974357508746907
48.3125,-5.42101086242752e-19,-1.30104260698261e-18,1.43142219765687
48.375,-6.50521303491303e-19,-8.67361737988404e-19,1.85324050963302
48.4375,-6.50521303491303e-19,-8.67361737988404e-19,2.22942587820676
48.5,-4.33680868994202e-19,-8.67361737988404e-19,2.55071537315243
48.5625,-6.50521303491303e-19,-8.67361737988404e-19,2.80919778421063
48.625,-2.16840434497101e-19,-8.67361737988404e-19,2.99850842078582
48.6875,-6.50521303491303e-19,0,3.11398583108905
48.75,-1.0842021724855e-18,-1.73472347597681e-18,3.15278658188705
48.8125,-6.50521303491303e-19,0,3.11395527269781
48.875,-8.67361737988404e-19,-1.73472347597681e-18,2.99844806053461
48.9375,-1.0842021724855e-18,-8.67361737988404e-19,2.8091091159936
49,-6.50521303491303e-19,-8.67361737988404e-19,2.55060059043114
49.0625,-2.16840434497101e-19,0,2.22928781864779
49.125,-4.33680868994202e-19,0,1.85308258371675
49.1875,-3.25260651745651e-19,0,1.43124830321277
49.25,-2.16840434497101e-19,-4.33680868994202e-19,0.974171933716439
49.3125,-1.0842021724855e-19,-2.16840434497101e-19,0.493108209968834
49.375,1.32348898008484e-23,2.64697796016969e-23,-9.74837131034026e-05
49.4375,1.0842021724855e-19,4.33680868994202e-19,-0.493300785979914
49.5,2.16840434497101e-19,4.33680868994202e-19,-0.974357393023193
49.5625,4.33680868994202e-19,0,-1.43142209193021
49.625,4.33680868994202e-19,0,-1.85324042957963
49.6875,6.50521303491303e-19,1.73472347597681e-18,-2.22942583515005
49.75,4.33680868994202e-19,8.67361737988404e-19,-2.55071537248276
49.8125,4.33680868994202e-19,8.67361737988404e-19,-2.80919782475005
49.875,1.0842021724855e-18,8.67361737988404e-19,-2.99850849516401
49.9375,6.50521303491303e-19,8.67361737988404e-19,-3.11398592704448
50,6.50521303491303e-19,8.67361737988404e-19,-3.15278668426721
50.0625,2.16840434497101e-19,1.73472347597681e-18,-3.11395536583661
50.125,6.50521303491303e-19,0,-2.99844813063525
50.1875,6.50521303491303e-19,1.73472347597681e-18,-2.80910915315751
50.25,6.50521303491303e-19,8.67361737988404e-19,-2.55060059003589
50.3125,4.33680868994202e-19,8.67361737988404e-19,-2.22928778188662
50.375,4.33680868994202e-19,0,-1.8530825172426
50.4375,4.33680868994202e-19,4.33680868994202e-19,-1.43124821796857
50.5,2.16840434497101e-19,0,-0.974171843150937
50.5625,1.62630325872826e-19,2.16840434497101e-19,-0.493108127929408
50.625,-3.30872245021211e-23,-2.64697796016969e-23,9.75450855218966e-05
50.6875,-5.42101086242752e-20,-2.16840434497101e-19,0.493300818034244
50.75,-2.16840434497101e-19,-4.33680868994202e-19,0.974357391799787
50.8125,-1.0842021724855e-19,-4.33680868994202e-19,1.4314220586184
50.875,-4.33680868994202e-19,-8.67361737988404e-19,1.85324037018209
50.9375,-4.33680868994202e-19,0,2.22942575943054
51,-2.16840434497101e-19,-8.67361737988404e-19,2.55071529237691
51.0625,-8.67361737988404e-19,-8.67361737988404e-19,2.80919775249621
51.125,-6.50521303491303e-19,-8.67361737988404e-19,2.99850844144466
51.1875,-1.0842021724855e-18,0,3.11398589941857
51.25,-8.67361737988404e-19,-1.73472347597681e-18,3.15278668612222
51.3125,-6.50521303491303e-19,-8.67361737988404e-19,3.1139553960025
51.375,-1.0842021724855e-18,-1.73472347597681e-18,2.9984481836988
51.4375,-4.33680868994202e-19,-8.67361737988404e-19,2.80910922040842
51.5,-6.50521303491303e-19,-1.73472347597681e-18,2.55060066088258
51.5625,-6.50521303491303e-19,-1.73472347597681e-18,2.22928784551399
51.625,-4.33680868994202e-19,0,1.85308256425289
51.6875,-2.16840434497101e-19,0,1.43124824175872
51.75,-2.16840434497101e-19,-4.33680868994202e-19,0.974171840826471
51.8125,-1.62630325872826e-19,0,0.493108100629607
51.875,2.64697796016969e-23,2.64697796016969e-23,-9.75924808781127e-05
51.9375,5.42101086242752e-20,0,-0.493300877756391
52,1.0842021724855e-19,4.33680868994202e-19,-0.974357454451108
52.0625,3.25260651745651e-19,4.33680868994202e-19,-1.43142211464216
52.125,4.33680868994202e-19,1.73472347597681e-18,-1.85324041131201
52.1875,6.50521303491303e-19,8.67361737988404e-19,-2.22942577990006
52.25,4.33680868994202e-19,-8.67361737988404e-19,-2.55071528971605
52.3125,4.33680868994202e-19,8.67361737988404e-19,-2.80919772780542
52.375,6.50521303491303e-19,8.67361737988404e-19,-2.99850839912008
52.4375,1.0842021724855e-18,8.67361737988404e-19,-3.11398584638859
52.5,1.0842021724855e-18,8.67361737988404e-19,-3.15278663072417
52.5625,1.0842021724855e-18,8.67361737988404e-19,-3.11395534667985
52.625,1.0842021724855e-18,1.73472347597681e-18,-2.9984481477221
52.6875,1.0842021724855e-18,1.73472347597681e-18,-2.80910920281182
52.75,2.16840434497101e-19,8.67361737988404e-19,-2.5506006637708
52.8125,8.67361737988404e-19,8.67361737988404e-19,-2.22928786783224
52.875,4.33680868994202e-19,1.73472347597681e-18,-1.85308260204194
52.9375,4.33680868994202e-19,4.33680868994202e-19,-1.43124828884067
53,2.16840434497101e-19,4.33680868994202e-19,-0.974171889805933
53.0625,1.62630325872826e-19,4.33680868994202e-19,-0.49310814404701
53.125,-1.32348898008484e-23,-2.64697796016969e-23,9.75610191174548e-05
53.1875,-1.0842021724855e-19,-4.33680868994202e-19,0.493300862644018
53.25,-2.16840434497101e-19,0,0.974357457478713
53.3125,-2.16840434497101e-19,-4.33680868994202e-19,1.43142213480457
53.375,-2.16840434497101e-19,0,1.85324044504508
53.4375,-6.50521303491303e-19,0,2.2294258216964
53.5,-8.67361737988404e-19,0,2.55071533301591
53.5625,-4.33680868994202e-19,-8.67361737988404e-19,2.8091977660196
53.625,-1.0842021724855e-18,-1.73472347597681e-18,2.99850842662693
53.6875,-8.67361737988404e-19,-8.67361737988404e-19,3.11398585935435
53.75,-8.67361737988404e-19,0,3.15278662762822
53.8125,-2.16840434497101e-19,-8.67361737988404e-19,3.11395532847478
53.875,-6.50521303491303e-19,-8.67361737988404e-19,2.99844811761522
53.9375,-6.50521303491303e-19,-8.67361737988404e-19,2.80910916571215
54,-4.33680868994202e-19,-1.73472347597681e-18,2.55060062549608
54.0625,-2.16840434497101e-19,-8.67361737988404e-19,2.22928783420232
54.125,-4.33680868994202e-19,0,1.85308257799868
54.1875,-3.25260651745651e-19,-1.30104260698261e-18,1.43124827772861
54.25,-3.25260651745651e-19,-4.33680868994202e-19,0.974171892914032
54.3125,-5.42101086242752e-20,0,0.493108160476332
54.375,1.32348898008484e-23,2.64697796016969e-23,-9.75341535496301e-05
54.4375,5.42101086242752e-20,4.33680868994202e-19,-0.493300829716892
54.5,3.25260651745651e-19,0,-0.974357423649387
54.5625,3.25260651745651e-19,8.67361737988404e-19,-1.43142210521266
54.625,6.50521303491303e-19,8.67361737988404e-19,-1.85324042403476
54.6875,6.50521303491303e-19,8.67361737988404e-19,-2.22942581218394
54.75,6.50521303491303e-19,0,-2.55071533609173
54.8125,6.50521303491303e-19,8.67361737988404e-19,-2.80919778083904
54.875,6.50521303491303e-19,1.73472347597681e-18,-2.99850845059599
54.9375,6.50521303491303e-19,8.67361737988404e-19,-3.11398588857459
55,6.50521303491303e-19,8.67361737988404e-19,-3.15278665752521
55.0625,8.67361737988404e-19,8.67361737988404e-19,-3.11395535450994
55.125,6.50521303491303e-19,8.67361737988404e-19,-2.99844813597051
55.1875,8.67361737988404e-19,0,-2.80910917384541
55.25,6.50521303491303e-19,8.67361737988404e-19,-2.5506006224866
55.3125,6.50521303491303e-19,1.73472347597681e-18,-2.22928782084127
55.375,0,8.67361737988404e-19,-1.85308255661768
55.4375,4.33680868994202e-19,8.67361737988404e-19,-1.43124825180083
55.5,2.16840434497101e-19,4.33680868994202e-19,-0.974171866494866
55.5625,2.16840434497101e-19,2.16840434497101e-19,-0.493108137573425
55.625,-2.64697796016969e-23,-2.64697796016969e-23,9.75501850488696e-05
55.6875,-1.62630325872826e-19,-2.16840434497101e-19,0.493300836661774
55.75,-2.16840434497101e-19,0,0.974357420732274
55.8125,-3.25260651745651e-19,-4.33680868994202e-19,1.43142209317215
55.875,-4.33680868994202e-19,-8.67361737988404e-19,1.85324040496552
55.9375,-4.33680868994202e-19,-1.73472347597681e-18,2.22942578918021
56,-2.16840434497101e-19,0,2.55071531274861
56.0625,-8.67361737988404e-19,-8.67361737988404e-19,2.80919776069444
56.125,-6.50521303491303e-19,-8.67361737988404e-19,2.99850843659788
56.1875,-8.67361737988404e-19,-8.67361737988404e-19,3.11398588265281
56.25,-1.30104260698261e-18,-8.67361737988404e-19,3.15278666033098
56.3125,-8.67361737988404e-19,-1.73472347597681e-18,3.11395536535583
56.375,-6.50521303491303e-19,-1.73472347597681e-18,2.99844815297477
56.4375,-4.33680868994202e-19,0,2.80910919425254
56.5,-4.33680868994202e-19,0,2.55060064310974
56.5625,-6.50521303491303e-19,-8.67361737988404e-19,2.22928783855727
56.625,-4.33680868994202e-19,-8.67361737988404e-19,1.85308256883696
56.6875,-2.16840434497101e-19,-4.33680868994202e-19,1.43124825684253
56.75,-2.16840434497101e-19,0,0.974171863813896
56.8125,-1.0842021724855e-19,0,0.493108127807882
56.875,1.32348898008484e-23,2.64697796016969e-23,-9.75653455542582e-05
56.9375,1.0842021724855e-19,2.16840434497101e-19,-0.493300854763386
57,2.16840434497101e-19,8.67361737988404e-19,-0.974357438950292
57.0625,4.33680868994202e-19,0,-1.43142210875014
57.125,2.16840434497101e-19,0,-1.85324041562891
57.1875,4.33680868994202e-19,0,-2.22942579346574
57.25,4.33680868994202e-19,8.67361737988404e-19,-2.55071531020121
57.3125,4.33680868994202e-19,0,-2.80919775190518
57.375,4.33680868994202e-19,1.73472347597681e-18,-2.99850842308345
57.4375,1.0842021724855e-18,1.73472347597681e-18,-3.1139858665982
57.5,8.67361737988404e-19,8.67361737988404e-19,-3.15278664423911
57.5625,4.33680868994202e-19,8.67361737988404e-19,-3.1139553516597
57.625,1.0842021724855e-18,1.73472347597681e-18,-2.99844814367193
57.6875,6.50521303491303e-19,8.67361737988404e-19,-2.80910919061626
57.75,8.67361737988404e-19,1.73472347597681e-18,-2.55060064551857
57.8125,6.50521303491303e-19,0,-2.22928784646464
57.875,4.33680868994202e-19,8.67361737988404e-19,-1.85308258088218
57.9375,4.33680868994202e-19,8.67361737988404e-19,-1.43124827108013
58,2.16840434497101e-19,0,-0.974171878026132
58.0625,1.0842021724855e-19,2.16840434497101e-19,-0.493108139847856
58.125,-1.98523347012727e-23,-2.64697796016969e-23,9.75572321963281e-05
58.1875,-1.0842021724855e-19,-2.16840434497101e-19,0.493300851683897
58.25,-3.25260651745651e-19,-8.67361737988404e-19,0.974357441218256
58.3125,-3.25260651745651e-19,-8.67361737988404e-19,1.4314221158615
58.375,-4.33680868994202e-19,-8.67361737988404e-19,1.85324042636283
58.4375,-2.16840434497101e-19,-8.67361737988404e-19,2.22942580609047
58.5,-6.50521303491303e-19,0,2.550715322752
58.5625,-4.33680868994202e-19,-8.67361737988404e-19,2.80919776248746
58.625,-2.16840434497101e-19,0,2.99850843015737
58.6875,-4.33680868994202e-19,-8.67361737988404e-19,3.11398586920062
58.75,-6.50521303491303e-19,-8.67361737988404e-19,3.15278664211165
58.8125,-1.0842021724855e-18,-8.67361737988404e-19,3.11395534526663
58.875,-6.50521303491303e-19,0,2.99844813410813
58.9375,-6.50521303491303e-19,-8.67361737988404e-19,2.80910917942271
59,-4.33680868994202e-19,0,2.55060063443612
59.0625,-4.33680868994202e-19,-8.67361737988404e-19,2.22928783716485
59.125,-6.50521303491303e-19,-1.73472347597681e-18,1.85308257471656
59.1875,-2.16840434497101e-19,-4.33680868994202e-19,1.43124826888595
59.25,-4.33680868994202e-19,-4.33680868994202e-19,0.974171880014983
59.3125,-5.42101086242752e-20,0,0.493108145593094
59.375,3.30872245021211e-23,5.29395592033938e-23,-9.75487121899069e-05
59.4375,1.62630325872826e-19,0,-0.493300841760539
59.5,3.25260651745651e-19,0,-0.974357431433708
59.5625,3.25260651745651e-19,8.67361737988404e-19,-1.43142210769004
59.625,2.16840434497101e-19,8.67361737988404e-19,-1.85324042099066
59.6875,4.33680868994202e-19,8.67361737988404e-19,-2.22942580424512
59.75,8.67361737988404e-19,8.67361737988404e-19,-2.55071532460587
59.8125,8.67361737988404e-19,1.73472347597681e-18,-2.80919776764881
59.875,6.50521303491303e-19,8.67361737988404e-19,-2.99850843774624
59.9375,8.67361737988404e-19,8.67361737988404e-19,-3.11398587799698
60,1.0842021724855e-18,1.73472347597681e-18,-3.15278665074969
60.0625,6.50521303491303e-19,8.67361737988404e-19,-3.11395535244573
60.125,4.33680868994202e-19,1.73472347597681e-18,-2.99844813878729
60.1875,8.67361737988404e-19,1.73472347597681e-18,-2.80910918097034
60.25,4.33680868994202e-19,8.67361737988404e-19,-2.55060063271295
60.3125,6.50521303491303e-19,8.67361737988404e-19,-2.22928783252972
60.375,2.16840434497101e-19,0,-1.85308256795789
60.4375,3.25260651745651e-19,8.67361737988404e-19,-1.43124826108953
60.5,1.0842021724855e-19,0,-0.974171872390096
60.5625,5.42101086242752e-20,2.16840434497101e-19,-0.493108139286938
60.625,-2.64697796016969e-23,-2.64697796016969e-23,9.75527863674529e-05
60.6875,-1.0842021724855e-19,-2.16840434497101e-19,0.493300843054502
60.75,-2.16840434497101e-19,0,0.974357429835578
60.8125,-5.42101086242752e-19,-4.33680868994202e-19,1.43142210352875
60.875,-4.33680868994202e-19,-8.67361737988404e-19,1.85324041497246
60.9375,-4.33680868994202e-19,-2.60208521396521e-18,2.2294257973356
61,-6.50521303491303e-19,-8.67361737988404e-19,2.55071531787592
61.0625,-1.0842021724855e-18,-8.67361737988404e-19,2.80919776211027
61.125,-1.0842021724855e-18,-8.67361737988404e-19,2.99850843420012
61.1875,-4.33680868994202e-19,-8.67361737988404e-19,3.11398587691905
61.25,-6.50521303491303e-19,-8.67361737988404e-19,3.15278665222835
61.3125,-8.67361737988404e-19,-1.73472347597681e-18,3.11395535618037
61.375,-1.0842021724855e-18,-8.67361737988404e-19,2.99844814414544
61.4375,-8.67361737988404e-19,-8.67361737988404e-19,2.80910918709324
61.5,-2.16840434497101e-19,0,2.55060063865207
61.5625,-2.16840434497101e-19,0,2.2292878373932
61.625,-4.33680868994202e-19,-8.67361737988404e-19,1.85308257104327
61.6875,-3.25260651745651e-19,-4.33680868994202e-19,1.43124826198404
61.75,-2.16840434497101e-19,0,0.974171871024726
61.8125,-1.0842021724855e-19,2.16840434497101e-19,0.493108135936103
61.875,2.64697796016969e-23,5.29395592033938e-23,-9.75575560047042e-05
61.9375,1.62630325872826e-19,2.16840434497101e-19,-0.493300848479645
62,2.16840434497101e-19,0,-0.974357435076484
62.0625,4.33680868994202e-19,0,-1.4314221077988
62.125,4.33680868994202e-19,0,-1.85324041765595
62.1875,8.67361737988404e-19,1.73472347597681e-18,-2.22942579807457
62.25,4.33680868994202e-19,8.67361737988404e-19,-2.55071531661747
62.3125,2.16840434497101e-19,1.73472347597681e-18,-2.80919775910489
62.375,6.50521303491303e-19,8.67361737988404e-19,-2.99850842995473
62.4375,8.67361737988404e-19,8.67361737988404e-19,-3.11398587211257
62.5,1.30104260698261e-18,2.60208521396521e-18,-3.15278664760418
62.5625,8.67361737988404e-19,8.67361737988404e-19,-3.1139553524318
62.625,8.67361737988404e-19,8.67361737988404e-19,-2.99844814181255
62.6875,8.67361737988404e-19,1.73472347597681e-18,-2.8091091864858
62.75,1.30104260698261e-18,8.67361737988404e-19,-2.55060063980996
62.8125,6.50521303491303e-19,0,-2.22928784008805
62.875,4.33680868994202e-19,1.73472347597681e-18,-1.85308257482143
62.9375,3.25260651745651e-19,4.33680868994202e-19,-1.43124826624176
63,2.16840434497101e-19,4.33680868994202e-19,-0.974171875104176
63.0625,1.62630325872826e-19,0,-0.493108139226281
63.125,-1.98523347012727e-23,-2.64697796016969e-23,9.75555287028113e-05
63.1875,-5.42101086242752e-20,-2.16840434497101e-19,0.493300847983386
63.25,-2.16840434497101e-19,0,0.974357436140205
63.3125,-2.16840434497101e-19,-8.67361737988404e-19,1.43142211021451
63.375,-2.16840434497101e-19,-1.73472347597681e-18,1.85324042101779
63.4375,-4.33680868994202e-19,-8.67361737988404e-19,2.22942580184599
63.5,-8.67361737988404e-19,-8.67361737988404e-19,2.55071532021625
63.5625,-6.50521303491303e-19,-1.73472347597681e-18,2.80919776199222
63.625,-6.50521303491303e-19,0,2.99850843171575
63.6875,-8.67361737988404e-19,-8.67361737988404e-19,3.11398587251519
63.75,-2.16840434497101e-19,-1.73472347597681e-18,3.15278664662853
63.8125,-1.0842021724855e-18,-8.67361737988404e-19,3.11395535026691
63.875,-8.67361737988404e-19,-1.73472347597681e-18,2.99844813882158
63.9375,-8.67361737988404e-19,-8.67361737988404e-19,2.8091091831456
64,-4.33680868994202e-19,0,2.55060063663586
64.0625,-4.33680868994202e-19,-8.67361737988404e-19,2.22928783755485
64.125,-2.16840434497101e-19,0,1.85308257329234
64.1875,-1.0842021724855e-19,-4.33680868994202e-19,1.43124826591785
64.25,-2.16840434497101e-19,-4.33680868994202e-19,0.974171875998171
64.3125,-1.62630325872826e-19,-2.16840434497101e-19,0.493108141165848
64.375,1.98523347012727e-23,2.64697796016969e-23,-9.75528680913109e-05
64.4375,1.0842021724855e-19,2.16840434497101e-19,-0.493300845025237
64.5,3.25260651745651e-19,4.33680868994202e-19,-0.97435743334086
64.5625,2.16840434497101e-19,0,-1.43142210799214
64.625,4.33680868994202e-19,1.73472347597681e-18,-1.85324041969082
64.6875,6.50521303491303e-19,8.67361737988404e-19,-2.22942580158803
64.75,6.50521303491303e-19,8.67361737988404e-19,-2.55071532103384
64.8125,8.67361737988404e-19,8.67361737988404e-19,-2.80919776372945
64.875,1.0842021724855e-18,1.73472347597681e-18,-2.99850843408231
64.9375,8.67361737988404e-19,8.67361737988404e-19,-3.11398587513447
65,1.30104260698261e-18,8.67361737988404e-19,-3.15278664909702
65.0625,4.33680868994202e-19,0,-3.11395535221614
65.125,8.67361737988404e-19,0,-2.99844813997261
65.1875,6.50521303491303e-19,8.67361737988404e-19,-2.80910918334861
65.25,4.33680868994202e-19,0,-2.55060063588868
65.3125,4.33680868994202e-19,1.73472347597681e-18,-2.22928783599919
65.375,4.33680868994202e-19,1.73472347597681e-18,-1.85308257118771
65.4375,4.33680868994202e-19,0,-1.43124826359881
65.5,3.25260651745651e-19,4.33680868994202e-19,-0.97417187382148
65.5625,1.0842021724855e-19,2.16840434497101e-19,-0.493108139456371
65.625,-3.30872245021211e-23,-5.29395592033938e-23,9.75538660342933e-05
65.6875,-1.0842021724855e-19,-4.33680868994202e-19,0.493300845182485
65.75,-1.0842021724855e-19,0,0.974357432658956
65.8125,-3.25260651745651e-19,-8.67361737988404e-19,1.43142210659959
65.875,-4.33680868994202e-19,-8.67361737988404e-19,1.85324041781921
65.9375,-4.33680868994202e-19,0,2.22942579953495
66,-4.33680868994202e-19,0,2.55071531911496
66.0625,-4.33680868994202e-19,-8.67361737988404e-19,2.80919776223064
66.125,-6.50521303491303e-19,-8.67361737988404e-19,2.99850843321755
66.1875,-2.16840434497101e-19,0,3.11398587501517
66.25,-4.33680868994202e-19,-8.67361737988404e-19,3.15278664971877
66.3125,-1.30104260698261e-18,-1.73472347597681e-18,3.11395535346259
66.375,-2.16840434497101e-19,-1.73472347597681e-18,2.99844814163651
66.4375,-4.33680868994202e-19,-8.67361737988404e-19,2.80910918516602
66.5,-6.50521303491303e-19,-8.67361737988404e-19,2.5506006375802
66.5625,-6.50521303491303e-19,-1.73472347597681e-18,2.22928783731301
66.625,-2.16840434497101e-19,-8.67361737988404e-19,1.85308257193669
66.6875,-3.25260651745651e-19,-4.33680868994202e-19,1.43124826368671
66.75,-2.16840434497101e-19,-4.33680868994202e-19,0.974171873255209
66.8125,-1.62630325872826e-19,0,0.493108138341121
66.875,2.64697796016969e-23,2.64697796016969e-23,-9.75553451832693e-05
66.9375,1.0842021724855e-19,0,-0.493300846791108
67,2.16840434497101e-19,0,-0.97435743414993
67.0625,2.16840434497101e-19,8.67361737988404e-19,-1.43142210775103
67.125,4.33680868994202e-19,8.67361737988404e-19,-1.85324041846754
67.1875,6.50521303491303e-19,8.67361737988404e-19,-2.22942579959727
67.25,1.0842021724855e-18,8.67361737988404e-19,-2.55071531859965
67.3125,4.33680868994202e-19,8.67361737988404e-19,-2.80919776123291
67.375,6.50521303491303e-19,1.73472347597681e-18,-2.99850843190276
67.4375,2.16840434497101e-19,8.67361737988404e-19,-3.11398587359163
67.5,1.0842021724855e-18,8.67361737988404e-19,-3.15278664840487
67.5625,8.67361737988404e-19,1.73472347597681e-18,-3.11395535245357
67.625,6.50521303491303e-19,8.67361737988404e-19,-2.9984481410757
67.6875,6.50521303491303e-19,8.67361737988404e-19,-2.80910918512461
67.75,8.67361737988404e-19,2.60208521396521e-18,-2.55060063804879
67.8125,6.50521303491303e-19,8.67361737988404e-19,-2.22928783820532
67.875,2.16840434497101e-19,1.73472347597681e-18,-1.85308257310533
67.9375,3.25260651745651e-19,4.33680868994202e-19,-1.43124826494647
68,2.16840434497101e-19,4.33680868994202e-19,-0.974171874413017
68.0625,1.62630325872826e-19,0,-0.493108139225252
68.125,-2.64697796016969e-23,-5.29395592033938e-23,9.75548604480488e-05
68.1875,-1.0842021724855e-19,-2.16840434497101e-19,0.493300846766596
68.25,-2.16840434497101e-19,-4.33680868994202e-19,0.974357434575348
68.3125,-3.25260651745651e-19,-8.67361737988404e-19,1.43142210854897
68.375,-4.33680868994202e-19,-8.67361737988404e-19,1.85324041950599
68.4375,-6.50521303491303e-19,-8.67361737988404e-19,2.22942580071181
68.5,-6.50521303491303e-19,-8.67361737988404e-19,2.55071531961976
68.5625,-2.16840434497101e-19,-1.73472347597681e-18,2.80919776200722
68.625,-6.50521303491303e-19,-8.67361737988404e-19,2.99850843232165
68.6875,-6.50521303491303e-19,0,3.11398587360253
68.75,-8.67361737988404e-19,-8.67361737988404e-19,3.15278664801843
68.8125,-6.50521303491303e-19,0,3.1139553517402
68.875,-6.50521303491303e-19,-8.67361737988404e-19,2.99844814015307
68.9375,-1.0842021724855e-18,-8.67361737988404e-19,2.80910918413841
69,-2.16840434497101e-19,-8.67361737988404e-19,2.55060063715017
69.0625,-4.33680868994202e-19,-8.67361737988404e-19,2.22928783752725
69.125,-4.33680868994202e-19,-8.67361737988404e-19,1.85308257274364
69.1875,-3.25260651745651e-19,-4.33680868994202e-19,1.43124826494635
69.25,-3.25260651745651e-19,-4.33680868994202e-19,0.974171874763433
69.3125,-1.0842021724855e-19,-2.16840434497101e-19,0.493108139862828
69.375,2.64697796016969e-23,2.64697796016969e-23,-9.7554040738408e-05
69.4375,5.42101086242752e-20,0,-0.493300845894217
69.5,2.16840434497101e-19,4.33680868994202e-19,-0.974357433783883
69.5625,4.33680868994202e-19,8.67361737988404e-19,-1.43142210795537
69.625,2.16840434497101e-19,8.67361737988404e-19,-1.85324041919395
69.6875,6.50521303491303e-19,8.67361737988404e-19,-2.22942580072014
69.75,6.50521303491303e-19,0,-2.55071531993749
69.8125,8.67361737988404e-19,8.67361737988404e-19,-2.80919776257704
69.875,8.67361737988404e-19,8.67361737988404e-19,-2.99850843304973
69.9375,8.67361737988404e-19,1.73472347597681e-18,-3.11398587437418
70,6.50521303491303e-19,1.73472347597681e-18,-3.15278664871568
70.0625,6.50521303491303e-19,8.67361737988404e-19,-3.11395535225995
70.125,6.50521303491303e-19,1.73472347597681e-18,-2.99844814042204
70.1875,4.33680868994202e-19,8.67361737988404e-19,-2.80910918412363
70.25,6.50521303491303e-19,8.67361737988404e-19,-2.55060063686239
70.3125,4.33680868994202e-19,8.67361737988404e-19,-2.22928783701817
70.375,4.33680868994202e-19,8.67361737988404e-19,-1.85308257209682
70.4375,4.33680868994202e-19,4.33680868994202e-19,-1.43124826426398
70.5,3.25260651745651e-19,4.33680868994202e-19,-0.974171874149431
70.5625,5.42101086242752e-20,-2.16840434497101e-19,-0.493108139407993
70.625,-3.30872245021211e-23,0,9.75542724510172e-05
70.6875,-1.62630325872826e-19,-2.16840434497101e-19,0.493300845874636
70.75,-3.25260651745651e-19,-8.67361737988404e-19,0.974357433523307
70.8125,-3.25260651745651e-19,-8.67361737988404e-19,1.43142210750059
70.875,-6.50521303491303e-19,-8.67361737988404e-19,1.85324041861957
70.9375,-4.33680868994202e-19,-8.67361737988404e-19,2.22942580011664
71,-4.33680868994202e-19,-8.67361737988404e-19,2.55071531939686
71.0625,-4.33680868994202e-19,-1.73472347597681e-18,2.80919776217905
71.125,-6.50521303491303e-19,-1.73472347597681e-18,2.9985084328503
71.1875,-1.0842021724855e-18,-8.67361737988404e-19,3.11398587439742
71.25,-4.33680868994202e-19,-8.67361737988404e-19,3.15278664895137
71.3125,-6.50521303491303e-19,-8.67361737988404e-19,3.11395535266606
71.375,-8.67361737988404e-19,-8.67361737988404e-19,2.99844814093207
71.4375,-8.67361737988404e-19,-8.67361737988404e-19,2.80910918465735
71.5,-1.0842021724855e-18,0,2.55060063733832
71.5625,-4.33680868994202e-19,-8.67361737988404e-19,2.22928783736625
71.625,-8.67361737988404e-19,-1.73472347597681e-18,1.85308257226836
71.6875,-2.16840434497101e-19,-4.33680868994202e-19,1.43124826423826
71.75,-2.16840434497101e-19,-4.33680868994202e-19,0.97417187393634
71.8125,-5.42101086242752e-20,0,0.493108139045254
71.875,3.30872245021211e-23,0,-9.75547251491392e-05
71.9375,1.0842021724855e-19,2.16840434497101e-19,-0.493300846346503
72,1.0842021724855e-19,4.33680868994202e-19,-0.974357433942366
72.0625,3.25260651745651e-19,4.33680868994202e-19,-1.43142210780495
72.125,4.33680868994202e-19,1.73472347597681e-18,-1.85324041876703
72.1875,4.33680868994202e-19,1.73472347597681e-18,-2.22942580008931
72.25,6.50521303491303e-19,8.67361737988404e-19,-2.55071531920412
72.3125,6.50521303491303e-19,1.73472347597681e-18,-2.80919776185529
72.375,6.50521303491303e-19,8.67361737988404e-19,-2.99850843244829
72.4375,8.67361737988404e-19,8.67361737988404e-19,-3.11398587398019
72.5,6.50521303491303e-19,0,-3.1527866485825
72.5625,6.50521303491303e-19,0,-3.11395535239981
72.625,8.67361737988404e-19,1.73472347597681e-18,-2.99844814080559
72.6875,6.50521303491303e-19,1.73472347597681e-18,-2.80910918468547
72.75,1.0842021724855e-18,8.67361737988404e-19,-2.55060063751226
72.8125,6.50521303491303e-19,8.67361737988404e-19,-2.22928783765525
72.875,4.33680868994202e-19,8.67361737988404e-19,-1.85308257262526
72.9375,5.42101086242752e-19,4.33680868994202e-19,-1.43124826460697
73,4.33680868994202e-19,8.67361737988404e-19,-0.974171874261111
73.0625,1.0842021724855e-19,0,-0.493108139278049
73.125,-1.98523347012727e-23,-2.64697796016969e-23,9.75546167141508e-05
73.1875,-1.62630325872826e-19,0,0.493300846374961
73.25,-2.16840434497101e-19,0,0.974357434099439
73.3125,-3.25260651745651e-19,-8.67361737988404e-19,1.43142210806285
73.375,-8.67361737988404e-19,-8.67361737988404e-19,1.85324041908375
73.4375,-6.50521303491303e-19,-8.67361737988404e-19,2.22942580041531
73.5,-8.67361737988404e-19,0,2.55071531948992
73.5625,-6.50521303491303e-19,-1.73472347597681e-18,2.80919776205877
73.625,-1.0842021724855e-18,-8.67361737988404e-19,2.99850843254118
73.6875,-8.67361737988404e-19,-1.73472347597681e-18,3.11398587395187
73.75,-4.33680868994202e-19,-1.73472347597681e-18,3.1527866484409
73.8125,-1.0842021724855e-18,-8.67361737988404e-19,3.11395535216972
73.875,-8.67361737988404e-19,-1.73472347597681e-18,2.99844814052454
73.9375,-1.0842021724855e-18,-8.67361737988404e-19,2.80910918439737
74,-8.67361737988404e-19,-1.73472347597681e-18,2.55060063726088
74.0625,-4.33680868994202e-19,-8.67361737988404e-19,2.2292878374776
74.125,-6.50521303491303e-19,-8.67361737988404e-19,1.85308257254569
74.1875,-4.33680868994202e-19,-4.33680868994202e-19,1.43124826463483
74.25,-3.25260651745651e-19,-4.33680868994202e-19,0.974171874388871
74.3125,-5.42101086242752e-20,0,0.493108139483322
74.375,3.30872245021211e-23,2.64697796016969e-23,-9.75543673607017e-05
74.4375,1.0842021724855e-19,2.16840434497101e-19,-0.493300846120202
74.5,2.16840434497101e-19,4.33680868994202e-19,-0.974357433878245
74.5625,4.33680868994202e-19,0,-1.43142210790757
74.625,4.33680868994202e-19,1.73472347597681e-18,-1.85324041901583
74.6875,4.33680868994202e-19,1.73472347597681e-18,-2.22942580044245
74.75,4.33680868994202e-19,0,-2.55071531960499
74.8125,6.50521303491303e-19,8.67361737988404e-19,-2.80919776224181
74.875,4.33680868994202e-19,8.67361737988404e-19,-2.9985084327625
74.9375,8.67361737988404e-19,8.67361737988404e-19,-3.11398587417685
75,1.0842021724855e-18,8.67361737988404e-19,-3.1527866486354
75.0625,6.50521303491303e-19,1.73472347597681e-18,-3.11395535230531
75.125,4.33680868994202e-19,0,-2.99844814058247
75.1875,6.50521303491303e-19,0,-2.80910918437127
75.25,8.67361737988404e-19,1.73472347597681e-18,-2.55060063715715
75.3125,6.50521303491303e-19,1.73472347597681e-18,-2.22928783731434
75.375,6.50521303491303e-19,8.67361737988404e-19,-1.85308257234937
75.4375,4.33680868994202e-19,4.33680868994202e-19,-1.43124826443606
75.5,1.0842021724855e-19,4.33680868994202e-19,-0.9741718742176
75.5625,1.62630325872826e-19,2.16840434497101e-19,-0.493108139364814
75.625,-1.98523347012727e-23,0,9.75544167074159e-05
75.6875,-5.42101086242752e-20,0,0.493300846095216
75.75,-1.0842021724855e-19,0,0.974357433784882
75.8125,-3.25260651745651e-19,-4.33680868994202e-19,1.43142210776211
75.875,-4.33680868994202e-19,-8.67361737988404e-19,1.85324041884155
75.9375,-2.16840434497101e-19,-8.67361737988404e-19,2.22942580026683
76,-8.67361737988404e-19,0,2.55071531945456
76.0625,-8.67361737988404e-19,-1.73472347597681e-18,2.80919776213846
76.125,-4.33680868994202e-19,-8.67361737988404e-19,2.99850843272055
76.1875,-6.50521303491303e-19,-8.67361737988404e-19,3.11398587420069
76.25,-6.50521303491303e-19,-1.73472347597681e-18,3.15278664871947
76.3125,-8.67361737988404e-19,-8.67361737988404e-19,3.11395535243507
76.375,-4.33680868994202e-19,-1.73472347597681e-18,2.9984481407369
76.4375,-6.50521303491303e-19,-1.73472347597681e-18,2.80910918452642
76.5,-6.50521303491303e-19,0,2.55060063728942
76.5625,-6.50521303491303e-19,-1.73472347597681e-18,2.22928783740447
76.625,-2.16840434497101e-19,-8.67361737988404e-19,1.85308257238503
76.6875,-3.25260651745651e-19,-8.67361737988404e-19,1.4312482644134
76.75,-3.25260651745651e-19,-8.67361737988404e-19,0.974171874142004
76.8125,-1.0842021724855e-19,-2.16840434497101e-19,0.493108139249191
76.875,1.98523347012727e-23,2.64697796016969e-23,-9.75545537119342e-05
76.9375,1.62630325872826e-19,2.16840434497101e-19,-0.493300846232316
77,2.16840434497101e-19,4.33680868994202e-19,-0.974357433901036
77.0625,2.16840434497101e-19,4.33680868994202e-19,-1.43142210784071
77.125,4.33680868994202e-19,8.67361737988404e-19,-1.85324041887179
77.1875,6.50521303491303e-19,8.67361737988404e-19,-2.22942580024551
77.25,1.0842021724855e-18,8.67361737988404e-19,-2.55071531938655
77.3125,6.50521303491303e-19,1.73472347597681e-18,-2.80919776203537
77.375,6.50521303491303e-19,1.73472347597681e-18,-2.99850843259903
77.4375,2.16840434497101e-19,8.67361737988404e-19,-3.11398587407968
77.5,8.67361737988404e-19,1.73472347597681e-18,-3.15278664861725
77.5625,6.50521303491303e-19,0,-3.1139553523665
77.625,1.0842021724855e-18,1.73472347597681e-18,-2.99844814071139
77.6875,8.67361737988404e-19,8.67361737988404e-19,-2.80910918454647
77.75,6.50521303491303e-19,1.73472347597681e-18,-2.55060063735064
77.8125,6.50521303491303e-19,1.73472347597681e-18,-2.22928783749629
77.875,2.16840434497101e-19,8.67361737988404e-19,-1.85308257249289
77.9375,2.16840434497101e-19,4.33680868994202e-19,-1.43124826452027
78,2.16840434497101e-19,0,-0.97417187423185
78.0625,5.42101086242752e-20,0,-0.49310813930909
78.125,-2.64697796016969e-23,-5.29395592033938e-23,9.75545322593576e-05
78.1875,-5.42101086242752e-20,-2.16840434497101e-19,0.493300846251054
78.25,-3.25260651745651e-19,-8.67361737988404e-19,0.974357433956011
78.3125,-1.0842021724855e-19,-4.33680868994202e-19,1.43142210792257
78.375,-6.50521303491303e-19,-8.67361737988404e-19,1.85324041896739
78.4375,-4.33680868994202e-19,0,2.22942580033976
78.5,0,-8.67361737988404e-19,2.55071531946548
78.5625,-2.16840434497101e-19,0,2.80919776208744
78.625,-6.50521303491303e-19,-1.73472347597681e-18,2.99850843261717
78.6875,-1.0842021724855e-18,-1.73472347597681e-18,3.11398587406219
78.75,-8.67361737988404e-19,-1.73472347597681e-18,3.15278664856782
78.8125,-6.50521303491303e-19,-8.67361737988404e-19,3.11395535229359
78.875,-8.67361737988404e-19,0,2.99844814062669
78.9375,-6.50521303491303e-19,-8.67361737988404e-19,2.80910918446311
79,-8.67361737988404e-19,-8.67361737988404e-19,2.5506006372812
79.0625,-6.50521303491303e-19,8.67361737988404e-19,2.22928783745093
79.125,-6.50521303491303e-19,-1.73472347597681e-18,1.85308257247763
79.1875,-4.33680868994202e-19,-4.33680868994202e-19,1.43124826453657
79.25,-1.0842021724855e-19,0,0.97417187427616
79.3125,-1.62630325872826e-19,0,0.493108139374018
79.375,1.98523347012727e-23,0,-9.75544571600227e-05
79.4375,5.42101086242752e-20,0,-0.493300846177505
79.5,3.25260651745651e-19,4.33680868994202e-19,-0.974357433895238
79.5625,2.16840434497101e-19,4.33680868994202e-19,-1.43142210788314
79.625,2.16840434497101e-19,0,-1.85324041895462
79.6875,4.33680868994202e-19,0,-2.22942580035491
79.75,6.50521303491303e-19,1.73472347597681e-18,-2.55071531950534
79.8125,8.67361737988404e-19,1.73472347597681e-18,-2.80919776214532
79.875,6.50521303491303e-19,8.67361737988404e-19,-2.99850843268368
79.9375,6.50521303491303e-19,8.67361737988404e-19,-3.11398587412711
80,8.67361737988404e-19,1.73472347597681e-18,-3.15278664862134
80.0625,8.67361737988404e-19,8.67361737988404e-19,-3.113955352328
80.125,6.50521303491303e-19,8.67361737988404e-19,-2.99844814063729
80.1875,4.33680868994202e-19,8.67361737988404e-19,-2.80910918444911
80.25,4.33680868994202e-19,8.67361737988404e-19,-2.5506006372456
80.3125,4.33680868994202e-19,8.67361737988404e-19,-2.22928783739944
80.375,2.16840434497101e-19,0,-1.8530825724186
80.4375,3.25260651745651e-19,8.67361737988404e-19,-1.43124826447941
80.5,2.16840434497101e-19,0,-0.974171874229182
80.5625,1.0842021724855e-19,2.16840434497101e-19,-0.493108139344104
80.625,-3.30872245021211e-23,-5.29395592033938e-23,9.7554465986726e-05
80.6875,-1.0842021724855e-19,-2.16840434497101e-19,0.493300846164648
80.75,-2.16840434497101e-19,0,0.974357433863083
80.8125,-1.0842021724855e-19,-8.67361737988404e-19,1.43142210783726
80.875,-4.33680868994202e-19,-8.67361737988404e-19,1.85324041890236
80.9375,-6.50521303491303e-19,-8.67361737988404e-19,2.22942580030442
81,-6.50521303491303e-19,-1.73472347597681e-18,2.55071531946401
81.0625,-2.16840434497101e-19,-8.67361737988404e-19,2.8091977621193
81.125,-8.67361737988404e-19,-8.67361737988404e-19,2.99850843267637
81.1875,-1.0842021724855e-18,-8.67361737988404e-19,3.11398587413905
81.25,-6.50521303491303e-19,-8.67361737988404e-19,3.15278664865015
81.3125,-4.33680868994202e-19,-8.67361737988404e-19,3.11395535236887
81.375,-8.67361737988404e-19,0,2.99844814068371
81.4375,-8.67361737988404e-19,0,2.80910918449378
81.5,-8.67361737988404e-19,-8.67361737988404e-19,2.55060063728181
81.5625,-6.50521303491303e-19,0,2.2292878374221
81.625,-2.16840434497101e-19,-8.67361737988404e-19,1.85308257242454
81.6875,-2.16840434497101e-19,-4.33680868994202e-19,1.43124826446844
81.75,-1.0842021724855e-19,0,0.974171874203343
81.8125,-5.42101086242752e-20,0,0.49310813930755
81.875,6.61744490042422e-24,0,-9.75545072516863e-05
81.9375,1.62630325872826e-19,2.16840434497101e-19,-0.493300846204317
82,3.25260651745651e-19,4.33680868994202e-19,-0.974357433895313
82.0625,2.16840434497101e-19,4.33680868994202e-19,-1.43142210785689
82.125,2.16840434497101e-19,1.73472347597681e-18,-1.85324041890729
82.1875,2.16840434497101e-19,0,-2.22942580029423
82.25,6.50521303491303e-19,8.67361737988404e-19,-2.55071531944068
82.3125,4.33680868994202e-19,1.73472347597681e-18,-2.8091977620867
82.375,6.50521303491303e-19,8.67361737988404e-19,-2.99850843263981
82.4375,1.0842021724855e-18,1.73472347597681e-18,-3.11398587410402
82.5,4.33680868994202e-19,8.67361737988404e-19,-3.15278664862202
82.5625,6.50521303491303e-19,8.67361737988404e-19,-3.11395535235157
82.625,4.33680868994202e-19,0,-2.99844814067965
82.6875,6.50521303491303e-19,8.67361737988404e-19,-2.80910918450311
82.75,6.50521303491303e-19,8.67361737988404e-19,-2.55060063730265
82.8125,6.50521303491303e-19,0,-2.2292878374511
82.875,4.33680868994202e-19,0,-1.85308257245701
82.9375,2.16840434497101e-19,8.67361737988404e-19,-1.43124826449902
83,2.16840434497101e-19,0,-0.974171874228127
83.0625,1.0842021724855e-19,0,-0.493108139322633
83.125,-2.64697796016969e-23,-2.64697796016969e-23,9.75545038493591e-05
83.1875,-1.0842021724855e-19,0,0.493300846212381
83.25,-4.33680868994202e-19,-4.33680868994202e-19,0.974357433913648
83.3125,-6.50521303491303e-19,0,1.43142210788273
83.375,-4.33680868994202e-19,-8.67361737988404e-19,1.85324041893602
83.4375,-6.50521303491303e-19,-8.67361737988404e-19,2.22942580032158
83.5,-4.33680868994202e-19,8.67361737988404e-19,2.55071531946264
83.5625,-4.33680868994202e-19,0,2.80919776209986
83.625,-4.33680868994202e-19,0,2.99850843264263
83.6875,-8.67361737988404e-19,-8.67361737988404e-19,3.11398587409646
83.75,-6.50521303491303e-19,-1.73472347597681e-18,3.15278664860542
83.8125,-2.16840434497101e-19,0,3.11395535232877
83.875,-6.50521303491303e-19,0,2.99844814065415
83.9375,-4.33680868994202e-19,-1.73472347597681e-18,2.809109184479
84,-6.50521303491303e-19,-8.67361737988404e-19,2.55060063728347
84.0625,-4.33680868994202e-19,0,2.22928783743948
84.125,-4.33680868994202e-19,-8.67361737988404e-19,1.85308257245487
84.1875,-3.25260651745651e-19,-4.33680868994202e-19,1.43124826450615
84.25,-3.25260651745651e-19,-4.33680868994202e-19,0.974171874242832
84.3125,-1.0842021724855e-19,-4.33680868994202e-19,0.493108139343179
84.375,1.98523347012727e-23,5.29395592033938e-23,-9.75544810908454e-05
84.4375,1.0842021724855e-19,0,-0.493300846191283
84.5,2.16840434497101e-19,4.33680868994202e-19,-0.97435743389684
84.5625,4.33680868994202e-19,8.67361737988404e-19,-1.43142210787275
84.625,6.50521303491303e-19,1.73472347597681e-18,-1.85324041893433
84.6875,2.16840434497101e-19,-8.67361737988404e-19,-2.22942580032779
84.75,6.50521303491303e-19,1.73472347597681e-18,-2.55071531947586
84.8125,8.67361737988404e-19,0,-2.80919776211802
84.875,1.0842021724855e-18,8.67361737988404e-19,-2.99850843266251
84.9375,6.50521303491303e-19,8.67361737988404e-19,-3.11398587411519
85,6.50521303491303e-19,2.60208521396521e-18,-3.15278664862017
85.0625,6.50521303491303e-19,0,-3.11395535233742
85.125,2.16840434497101e-19,8.67361737988404e-19,-2.99844814065555
85.1875,4.33680868994202e-19,8.67361737988404e-19,-2.80910918447309
85.25,4.33680868994202e-19,1.73472347597681e-18,-2.55060063727171
85.3125,6.50521303491303e-19,8.67361737988404e-19,-2.22928783742353
85.375,6.50521303491303e-19,0,-1.85308257243704
85.4375,4.33680868994202e-19,8.67361737988404e-19,-1.43124826448987
85.5,2.16840434497101e-19,0,-0.974171874230117
85.5625,1.0842021724855e-19,2.16840434497101e-19,-0.493108139335517
85.625,-2.64697796016969e-23,-5.29395592033938e-23,9.75544823309446e-05
85.6875,-5.42101086242752e-20,-2.16840434497101e-19,0.493300846185967
85.75,-2.16840434497101e-19,0,0.974357433886274
85.8125,-5.42101086242752e-19,-4.33680868994202e-19,1.43142210785858
85.875,-4.33680868994202e-19,0,1.85324041891852
85.9375,-6.50521303491303e-19,-8.67361737988404e-19,2.22942580031334
86,-6.50521303491303e-19,0,2.55071531946438
86.0625,-4.33680868994202e-19,0,2.80919776211147
86.125,-1.0842021724855e-18,-8.67361737988404e-19,2.99850843266179
86.1875,-1.0842021724855e-18,-1.73472347597681e-18,3.11398587412005
86.25,-4.33680868994202e-19,-8.67361737988404e-19,3.15278664862975
86.3125,-8.67361737988404e-19,-1.73472347597681e-18,3.11395535235009
86.375,-4.33680868994202e-19,-8.67361737988404e-19,2.99844814066934
86.4375,-4.33680868994202e-19,-8.67361737988404e-19,2.80910918448604
86.5,-6.50521303491303e-19,-8.67361737988404e-19,2.55060063728146
86.5625,-8.67361737988404e-19,-8.67361737988404e-19,2.22928783742901
86.625,-2.16840434497101e-19,0,1.8530825724378
86.6875,-1.0842021724855e-19,-4.33680868994202e-19,1.43124826448524
86.75,-1.0842021724855e-19,0,0.974171874221362
86.8125,-1.0842021724855e-19,0,0.493108139324184
86.875,3.30872245021211e-23,0,-9.75544946206261e-05
86.9375,1.0842021724855e-19,0,-0.493300846197494
87,2.16840434497101e-19,4.33680868994202e-19,-0.974357433894821
87.0625,4.33680868994202e-19,4.33680868994202e-19,-1.43142210786329
87.125,4.33680868994202e-19,8.67361737988404e-19,-1.85324041891907
87.1875,4.33680868994202e-19,1.73472347597681e-18,-2.2294258003092
87.25,6.50521303491303e-19,8.67361737988404e-19,-2.55071531945686
87.3125,2.16840434497101e-19,0,-2.80919776210147
87.375,8.67361737988404e-19,8.67361737988404e-19,-2.99850843265092
87.4375,1.0842021724855e-18,8.67361737988404e-19,-3.11398587411004
87.5,1.0842021724855e-18,1.73472347597681e-18,-3.15278664862209
87.5625,6.50521303491303e-19,1.73472347597681e-18,-3.11395535234591
87.625,6.50521303491303e-19,0,-2.99844814066917
87.6875,2.16840434497101e-19,8.67361737988404e-19,-2.80910918448959
87.75,6.50521303491303e-19,0,-2.55060063728846
87.8125,6.50521303491303e-19,8.67361737988404e-19,-2.22928783743812
87.875,2.16840434497101e-19,8.67361737988404e-19,-1.85308257244727
87.9375,3.25260651745651e-19,4.33680868994202e-19,-1.43124826449406
88,3.25260651745651e-19,8.67361737988404e-19,-0.974171874228072
88.0625,1.0842021724855e-19,0,-0.493108139327664
88.125,-3.30872245021211e-23,-5.29395592033938e-23,9.75544942800355e-05
88.1875,-5.42101086242752e-20,0,0.493300846200589
88.25,-4.33680868994202e-19,-4.33680868994202e-19,0.974357433901108
88.3125,-4.33680868994202e-19,-4.33680868994202e-19,1.43142210787103
88.375,-4.33680868994202e-19,-8.67361737988404e-19,1.85324041892738
88.4375,-4.33680868994202e-19,0,2.22942580031707
88.5,-6.50521303491303e-19,-8.67361737988404e-19,2.55071531946272
88.5625,-6.50521303491303e-19,0,2.80919776210462
88.625,-2.16840434497101e-19,0,2.998508432651
88.6875,-6.50521303491303e-19,-8.67361737988404e-19,3.11398587410704
88.75,-1.0842021724855e-18,-8.67361737988404e-19,3.15278664861663
88.8125,-8.67361737988404e-19,-1.73472347597681e-18,3.11395535233885
88.875,-8.67361737988404e-19,-8.67361737988404e-19,2.99844814066177
88.9375,-8.67361737988404e-19,-1.73472347597681e-18,2.80910918448288
89,-4.33680868994202e-19,-8.67361737988404e-19,2.55060063728322
89.0625,-6.50521303491303e-19,-8.67361737988404e-19,2.22928783743549
89.125,-4.33680868994202e-19,-8.67361737988404e-19,1.85308257244731
89.1875,-2.16840434497101e-19,-4.33680868994202e-19,1.4312482644966
89.25,-3.25260651745651e-19,-4.33680868994202e-19,0.974171874233268
89.3125,-1.0842021724855e-19,-2.16840434497101e-19,0.493108139334114
89.375,1.98523347012727e-23,5.29395592033938e-23,-9.75544878250336e-05
89.4375,1.0842021724855e-19,0,-0.493300846194307
89.5,1.0842021724855e-19,0,-0.974357433896401
89.5625,4.33680868994202e-19,8.67361737988404e-19,-1.43142210786884
89.625,2.16840434497101e-19,8.67361737988404e-19,-1.85324041892761
89.6875,6.50521303491303e-19,8.67361737988404e-19,-2.22942580031951
89.75,4.33680868994202e-19,8.67361737988404e-19,-2.55071531946715
89.8125,2.16840434497101e-19,0,-2.80919776211024
89.875,1.0842021724855e-18,1.73472347597681e-18,-2.99850843265683
89.9375,8.67361737988404e-19,1.73472347597681e-18,-3.11398587411236
90,1.0842021724855e-18,1.73472347597681e-18,-3.15278664862057
90.0625,1.0842021724855e-18,8.67361737988404e-19,-3.11395535234091
90.125,6.50521303491303e-19,0,-2.99844814066156
90.1875,4.33680868994202e-19,0,-2.80910918448059
90.25,4.33680868994202e-19,8.67361737988404e-19,-2.55060063727933
90.3125,4.33680868994202e-19,0,-2.22928783743034
90.375,6.50521303491303e-19,8.67361737988404e-19,-1.85308257244196
90.4375,3.25260651745651e-19,4.33680868994202e-19,-1.43124826449211
90.5,2.16840434497101e-19,0,-0.974171874229514
90.5625,1.0842021724855e-19,0,-0.493108139332179
90.625,-2.64697796016969e-23,-5.29395592033938e-23,9.75544874445484e-05
90.6875,-1.0842021724855e-19,-4.33680868994202e-19,0.493300846192551
90.75,-2.16840434497101e-19,-4.33680868994202e-19,0.97435743389311
90.8125,-3.25260651745651e-19,-4.33680868994202e-19,1.43142210786448
90.875,-6.50521303491303e-19,-8.67361737988404e-19,1.85324041892304
90.9375,-6.50521303491303e-19,-8.67361737988404e-19,2.22942580031554
91,-6.50521303491303e-19,-1.73472347597681e-18,2.55071531946403
91.0625,-8.67361737988404e-19,-8.67361737988404e-19,2.80919776210866
91.125,-4.33680868994202e-19,-8.67361737988404e-19,2.99850843265708
91.1875,-1.30104260698261e-18,-1.73472347597681e-18,3.11398587411414
91.25,-6.50521303491303e-19,-8.67361737988404e-19,3.15278664862367
91.3125,-4.33680868994202e-19,-8.67361737988404e-19,3.11395535234476
91.375,-8.67361737988404e-19,-8.67361737988404e-19,2.99844814066559
91.4375,-8.67361737988404e-19,-8.67361737988404e-19,2.80910918448419
91.5,-1.0842021724855e-18,-8.67361737988404e-19,2.55060063728183
91.5625,-4.33680868994202e-19,0,2.22928783743175
91.625,-4.33680868994202e-19,0,1.8530825724419
91.6875,-1.0842021724855e-19,-4.33680868994202e-19,1.43124826449032
91.75,-4.33680868994202e-19,-4.33680868994202e-19,0.974171874226977
91.8125,-1.62630325872826e-19,-2.16840434497101e-19,0.493108139328978
91.875,3.30872245021211e-23,2.64697796016969e-23,-9.75544911759244e-05
91.9375,1.0842021724855e-19,0,-0.493300846195695
92,3.25260651745651e-19,4.33680868994202e-19,-0.974357433895382
92.0625,4.33680868994202e-19,0,-1.43142210786572
92.125,2.16840434497101e-19,0,-1.85324041892265
92.1875,6.50521303491303e-19,8.67361737988404e-19,-2.22942580031393
92.25,4.33680868994202e-19,8.67361737988404e-19,-2.55071531946169
92.3125,6.50521303491303e-19,0,-2.80919776210552
92.375,6.50521303491303e-19,0,-2.99850843265385
92.4375,4.33680868994202e-19,1.73472347597681e-18,-3.11398587411139
92.5,1.0842021724855e-18,8.67361737988404e-19,-3.15278664862168
92.5625,6.50521303491303e-19,0,-3.11395535234382
92.625,8.67361737988404e-19,8.67361737988404e-19,-2.99844814066576
92.6875,6.50521303491303e-19,8.67361737988404e-19,-2.80910918448561
92.75,8.67361737988404e-19,0,-2.55060063728415
92.8125,4.33680868994202e-19,0,-2.22928783743433
92.875,4.33680868994202e-19,0,-1.85308257244494
92.9375,4.33680868994202e-19,8.67361737988404e-19,-1.43124826449296
93,2.16840434497101e-19,4.33680868994202e-19,-0.974171874228549
93.0625,2.16840434497101e-19,4.33680868994202e-19,-0.493108139329887
93.125,-1.98523347012727e-23,-5.29395592033938e-23,9.75544914085565e-05
93.1875,-1.0842021724855e-19,0,0.49330084619707
93.25,-1.0842021724855e-19,0,0.974357433897024
93.3125,-5.42101086242752e-19,-4.33680868994202e-19,1.43142210786793
93.375,-2.16840434497101e-19,-8.67361737988404e-19,1.85324041892524
93.4375,-6.50521303491303e-19,-8.67361737988404e-19,2.22942580031588
93.5,-4.33680868994202e-19,-1.73472347597681e-18,2.55071531946307
93.5625,-6.50521303491303e-19,0,2.80919776210628
93.625,-8.67361737988404e-19,-8.67361737988404e-19,2.99850843265367
93.6875,-4.33680868994202e-19,-1.73472347597681e-18,3.1139858741103
93.75,-4.33680868994202e-19,-1.73472347597681e-18,3.15278664861992
93.8125,-1.0842021724855e-18,-8.67361737988404e-19,3.11395535234166
93.875,-6.50521303491303e-19,-8.67361737988404e-19,2.99844814066366
93.9375,-6.50521303491303e-19,-8.67361737988404e-19,2.80910918448364
94,-6.50521303491303e-19,0,2.55060063728301
94.0625,-4.33680868994202e-19,0,2.22928783743393
94.125,-4.33680868994202e-19,-1.73472347597681e-18,1.85308257244496
94.1875,-3.25260651745651e-19,-4.33680868994202e-19,1.43124826449377
94.25,-3.25260651745651e-19,0,0.974171874230091
94.3125,-1.62630325872826e-19,-2.16840434497101e-19,0.493108139331469
94.375,2.64697796016969e-23,2.64697796016969e-23,-9.75544896914845e-05
94.4375,0,2.16840434497101e-19,-0.493300846195238
94.5,3.25260651745651e-19,4.33680868994202e-19,-0.97435743389619
94.5625,1.0842021724855e-19,4.33680868994202e-19,-1.43142210786762
94.625,2.16840434497101e-19,0,-1.85324041892531
94.6875,6.50521303491303e-19,0,-2.22942580031694
94.75,8.67361737988404e-19,2.60208521396521e-18,-2.55071531946457
94.8125,0,0,-2.80919776210795
94.875,1.0842021724855e-18,8.67361737988404e-19,-2.99850843265536
94.9375,6.50521303491303e-19,8.67361737988404e-19,-3.11398587411176
95,8.67361737988404e-19,1.73472347597681e-18,-3.15278664862092
95.0625,8.67361737988404e-19,0,-3.11395535234211
95.125,8.67361737988404e-19,0,-2.99844814066338
95.1875,6.50521303491303e-19,8.67361737988404e-19,-2.80910918448295
95.25,8.67361737988404e-19,8.67361737988404e-19,-2.55060063728162
95.3125,6.50521303491303e-19,8.67361737988404e-19,-2.22928783743232
95.375,2.16840434497101e-19,8.67361737988404e-19,-1.85308257244347
95.4375,1.0842021724855e-19,4.33680868994202e-19,-1.43124826449251
95.5,3.25260651745651e-19,4.33680868994202e-19,-0.974171874229066
95.5625,1.0842021724855e-19,2.16840434497101e-19,-0.493108139331331
95.625,-2.64697796016969e-23,-5.29395592033938e-23,9.75544892789702e-05
95.6875,-1.62630325872826e-19,-2.16840434497101e-19,0.4933008461947
95.75,-2.16840434497101e-19,-4.33680868994202e-19,0.974357433894878
95.8125,-2.16840434497101e-19,-8.67361737988404e-19,1.43142210786612
95.875,-6.50521303491303e-19,-1.73472347597681e-18,1.85324041892414
95.9375,-2.16840434497101e-19,-8.67361737988404e-19,2.22942580031582
96,-4.33680868994202e-19,-8.67361737988404e-19,2.55071531946381
96.0625,-1.0842021724855e-18,-8.67361737988404e-19,2.80919776210772
96.125,-6.50521303491303e-19,-8.67361737988404e-19,2.99850843265549
96.1875,-1.0842021724855e-18,-1.73472347597681e-18,3.11398587411236
96.25,-6.50521303491303e-19,-1.73472347597681e-18,3.15278664862187
96.3125,-8.67361737988404e-19,0,3.11395535234329
96.375,-4.33680868994202e-19,8.67361737988404e-19,2.9984481406646
96.4375,-6.50521303491303e-19,-1.73472347597681e-18,2.80910918448385
96.5,-8.67361737988404e-19,-1.73472347597681e-18,2.55060063728228
96.5625,-4.33680868994202e-19,-8.67361737988404e-19,2.22928783743258
96.625,-4.33680868994202e-19,-1.73472347597681e-18,1.85308257244316
96.6875,-2.16840434497101e-19,-4.33680868994202e-19,1.43124826449213
96.75,-2.16840434497101e-19,-4.33680868994202e-19,0.974171874228392
96.8125,-1.0842021724855e-19,0,0.49310813933013
96.875,1.98523347012727e-23,2.64697796016969e-23,-9.75544899889678e-05
96.9375,5.42101086242752e-20,0,-0.49330084619533
97,3.25260651745651e-19,0,-0.974357433895614
97.0625,3.25260651745651e-19,4.33680868994202e-19,-1.43142210786623
97.125,4.33680868994202e-19,0,-1.85324041892396
97.1875,4.33680868994202e-19,0,-2.22942580031542
97.25,4.33680868994202e-19,0,-2.55071531946284
97.3125,6.50521303491303e-19,8.67361737988404e-19,-2.80919776210673
97.375,6.50521303491303e-19,1.73472347597681e-18,-2.99850843265465
97.4375,6.50521303491303e-19,8.67361737988404e-19,-3.11398587411159
97.5,4.33680868994202e-19,1.73472347597681e-18,-3.1527866486214
97.5625,1.0842021724855e-18,1.73472347597681e-18,-3.11395535234308
97.625,6.50521303491303e-19,0,-2.9984481406647
97.6875,8.67361737988404e-19,8.67361737988404e-19,-2.8091091844843
97.75,8.67361737988404e-19,8.67361737988404e-19,-2.55060063728286
97.8125,4.33680868994202e-19,8.67361737988404e-19,-2.22928783743325
97.875,4.33680868994202e-19,0,-1.85308257244411
97.9375,3.25260651745651e-19,8.67361737988404e-19,-1.43124826449262
98,3.25260651745651e-19,4.33680868994202e-19,-0.974171874228654
98.0625,1.0842021724855e-19,2.16840434497101e-19,-0.493108139330503
98.125,-2.64697796016969e-23,-2.64697796016969e-23,9.75544903989137e-05
98.1875,-5.42101086242752e-20,0,0.493300846195922
98.25,-3.25260651745651e-19,-4.33680868994202e-19,0.974357433896235
98.3125,-5.42101086242752e-19,-4.33680868994202e-19,1.43142210786721
98.375,-6.50521303491303e-19,-8.67361737988404e-19,1.85324041892482
98.4375,-4.33680868994202e-19,-8.67361737988404e-19,2.22942580031589
98.5,-6.50521303491303e-19,-8.67361737988404e-19,2.55071531946344
98.5625,-6.50521303491303e-19,-8.67361737988404e-19,2.80919776210696
98.625,-6.50521303491303e-19,0,2.99850843265447
98.6875,-6.50521303491303e-19,-8.67361737988404e-19,3.11398587411125
98.75,-8.67361737988404e-19,-8.67361737988404e-19,3.15278664862085
98.8125,-4.33680868994202e-19,0,3.11395535234246
98.875,-4.33680868994202e-19,0,2.99844814066408
98.9375,-6.50521303491303e-19,-8.67361737988404e-19,2.80910918448368
99,-4.33680868994202e-19,-1.73472347597681e-18,2.55060063728263
99.0625,-6.50521303491303e-19,0,2.22928783743325
99.125,-4.33680868994202e-19,-8.67361737988404e-19,1.85308257244405
99.1875,-2.16840434497101e-19,-4.33680868994202e-19,1.43124826449314
99.25,-2.16840434497101e-19,-8.67361737988404e-19,0.974171874229352
99.3125,-1.0842021724855e-19,0,0.493108139330899
99.375,2.64697796016969e-23,0,-9.75544898288717e-05
99.4375,5.42101086242752e-20,2.16840434497101e-19,-0.493300846195443
99.5,2.16840434497101e-19,4.33680868994202e-19,-0.974357433896077
99.5625,2.16840434497101e-19,4.33680868994202e-19,-1.4314221078669
99.625,6.50521303491303e-19,1.73472347597681e-18,-1.85324041892475
99.6875,6.50521303491303e-19,8.67361737988404e-19,-2.22942580031629
99.75,6.50521303491303e-19,1.73472347597681e-18,-2.55071531946373
99.8125,4.33680868994202e-19,8.67361737988404e-19,-2.80919776210737
99.875,6.50521303491303e-19,8.67361737988404e-19,-2.99850843265502
99.9375,2.16840434497101e-19,0,-3.11398587411169
100,8.67361737988404e-19,8.67361737988404e-19,-3.15278664862113
100.0625,4.33680868994202e-19,0,-3.11395535234252
100.125,1.0842021724855e-18,0,-2.99844814066406
100.1875,4.33680868994202e-19,8.67361737988404e-19,-2.80910918448353
100.25,1.0842021724855e-18,8.67361737988404e-19,-2.55060063728215
100.3125,4.33680868994202e-19,0,-2.22928783743297
100.375,6.50521303491303e-19,8.67361737988404e-19,-1.8530825724438
100.4375,3.25260651745651e-19,4.33680868994202e-19,-1.4312482644926
100.5,3.25260651745651e-19,4.33680868994202e-19,-0.974171874229065
100.5625,1.0842021724855e-19,2.16840434497101e-19,-0.493108139330793
100.625,-1.98523347012727e-23,-2.64697796016969e-23,9.75544899464128e-05
100.6875,-1.62630325872826e-19,-2.16840434497101e-19,0.49330084619502
100.75,-3.25260651745651e-19,0,0.974357433895554
100.8125,-2.16840434497101e-19,0,1.43142210786666
100.875,-4.33680868994202e-19,-8.67361737988404e-19,1.85324041892411
100.9375,-6.50521303491303e-19,0,2.22942580031579
101,-6.50521303491303e-19,-1.73472347597681e-18,2.55071531946358
101.0625,-1.0842021724855e-18,-8.67361737988404e-19,2.80919776210721
101.125,-6.50521303491303e-19,-8.67361737988404e-19,2.99850843265505
101.1875,-8.67361737988404e-19,-8.67361737988404e-19,3.11398587411188
101.25,-8.67361737988404e-19,-1.73472347597681e-18,3.15278664862142
101.3125,-1.0842021724855e-18,-1.73472347597681e-18,3.1139553523429
101.375,-8.67361737988404e-19,-1.73472347597681e-18,2.99844814066435
101.4375,-6.50521303491303e-19,-8.67361737988404e-19,2.80910918448397
101.5,-8.67361737988404e-19,0,2.5506006372825
101.5625,-8.67361737988404e-19,-8.67361737988404e-19,2.22928783743295
101.625,-2.16840434497101e-19,0,1.85308257244365
101.6875,-4.33680868994202e-19,-4.33680868994202e-19,1.43124826449246
101.75,-2.16840434497101e-19,-4.33680868994202e-19,0.97417187422868
101.8125,-1.62630325872826e-19,-2.16840434497101e-19,0.493108139330315
101.875,2.64697796016969e-23,2.64697796016969e-23,-9.7554490061978e-05
101.9375,1.62630325872826e-19,0,-0.493300846195492
102,4.33680868994202e-19,0,-0.974357433895509
102.0625,3.25260651745651e-19,4.33680868994202e-19,-1.43142210786658
102.125,4.33680868994202e-19,0,-1.85324041892432
102.1875,6.50521303491303e-19,8.67361737988404e-19,-2.22942580031581
102.25,8.67361737988404e-19,8.67361737988404e-19,-2.55071531946339
102.3125,4.33680868994202e-19,0,-2.80919776210709
102.375,1.0842021724855e-18,0,-2.99850843265484
102.4375,8.67361737988404e-19,8.67361737988404e-19,-3.11398587411161
102.5,6.50521303491303e-19,8.67361737988404e-19,-3.15278664862124
102.5625,1.0842021724855e-18,-8.67361737988404e-19,-3.11395535234277
102.625,4.33680868994202e-19,0,-2.99844814066443
102.6875,1.0842021724855e-18,8.67361737988404e-19,-2.80910918448394
102.75,6.50521303491303e-19,8.67361737988404e-19,-2.55060063728256
102.8125,6.50521303491303e-19,8.67361737988404e-19,-2.22928783743315
102.875,4.33680868994202e-19,8.67361737988404e-19,-1.85308257244384
102.9375,4.33680868994202e-19,4.33680868994202e-19,-1.43124826449249
103,3.25260651745651e-19,0,-0.97417187422902
103.0625,1.0842021724855e-19,2.16840434497101e-19,-0.493108139330581
103.125,-2.64697796016969e-23,-5.29395592033938e-23,9.75544902592186e-05
103.1875,-1.0842021724855e-19,0,0.493300846195374
103.25,-2.16840434497101e-19,0,0.9743574338959
103.3125,-5.42101086242752e-19,-8.67361737988404e-19,1.43142210786696
103.375,-4.33680868994202e-19,-8.67361737988404e-19,1.85324041892455
103.4375,-8.67361737988404e-19,0,2.22942580031602
103.5,-2.16840434497101e-19,-1.73472347597681e-18,2.55071531946366
103.5625,-6.50521303491303e-19,-8.67361737988404e-19,2.8091977621071
103.625,-6.50521303491303e-19,-1.73472347597681e-18,2.9985084326548
103.6875,-4.33680868994202e-19,-8.67361737988404e-19,3.11398587411157
103.75,-2.16840434497101e-19,-8.67361737988404e-19,3.15278664862113
103.8125,-4.33680868994202e-19,0,3.11395535234265
103.875,-8.67361737988404e-19,-8.67361737988404e-19,2.99844814066418
103.9375,-6.50521303491303e-19,-1.73472347597681e-18,2.80910918448376
104,-8.67361737988404e-19,-8.67361737988404e-19,2.5506006372824
104.0625,-4.33680868994202e-19,0,2.22928783743292
104.125,-2.16840434497101e-19,0,1.85308257244399
104.1875,-5.42101086242752e-19,-4.33680868994202e-19,1.43124826449272
104.25,-3.25260651745651e-19,-4.33680868994202e-19,0.974171874228947
104.3125,-1.62630325872826e-19,0,0.493108139330948
104.375,3.30872245021211e-23,2.64697796016969e-23,-9.75544898716889e-05
104.4375,5.42101086242752e-20,2.16840434497101e-19,-0.493300846195397
104.5,2.16840434497101e-19,4.33680868994202e-19,-0.974357433895805
104.5625,4.33680868994202e-19,8.67361737988404e-19,-1.43142210786687
104.625,2.16840434497101e-19,0,-1.85324041892466
104.6875,4.33680868994202e-19,8.67361737988404e-19,-2.22942580031589
104.75,8.67361737988404e-19,1.73472347597681e-18,-2.55071531946361
104.8125,6.50521303491303e-19,0,-2.80919776210728
104.875,6.50521303491303e-19,1.73472347597681e-18,-2.99850843265485
104.9375,4.33680868994202e-19,8.67361737988404e-19,-3.11398587411167
105,8.67361737988404e-19,1.73472347597681e-18,-3.15278664862123
105.0625,1.0842021724855e-18,8.67361737988404e-19,-3.11395535234275
105.125,1.0842021724855e-18,8.67361737988404e-19,-2.99844814066421
105.1875,8.67361737988404e-19,8.67361737988404e-19,-2.80910918448367
105.25,8.67361737988404e-19,8.67361737988404e-19,-2.55060063728256
105.3125,4.33680868994202e-19,8.67361737988404e-19,-2.22928783743299
105.375,6.50521303491303e-19,8.67361737988404e-19,-1.85308257244374
105.4375,3.25260651745651e-19,4.33680868994202e-19,-1.43124826449285
105.5,2.16840434497101e-19,0,-0.97417187422905
105.5625,1.62630325872826e-19,2.16840434497101e-19,-0.493108139330682
105.625,-3.30872245021211e-23,-5.29395592033938e-23,9.75544901011065e-05
105.6875,-1.0842021724855e-19,0,0.493300846195409
105.75,-2.16840434497101e-19,-4.33680868994202e-19,0.974357433895913
105.8125,-3.25260651745651e-19,-4.33680868994202e-19,1.43142210786696
105.875,-4.33680868994202e-19,-8.67361737988404e-19,1.8532404189244
105.9375,-6.50521303491303e-19,-8.67361737988404e-19,2.22942580031592
106,-8.67361737988404e-19,-8.67361737988404e-19,2.55071531946361
106.0625,-6.50521303491303e-19,0,2.80919776210711
106.125,-4.33680868994202e-19,-8.67361737988404e-19,2.99850843265488
106.1875,-1.0842021724855e-18,-8.67361737988404e-19,3.11398587411171
106.25,-8.67361737988404e-19,-1.73472347597681e-18,3.15278664862127
106.3125,-1.0842021724855e-18,-8.67361737988404e-19,3.11395535234276
106.375,-8.67361737988404e-19,-8.67361737988404e-19,2.99844814066424
106.4375,-8.67361737988404e-19,-1.73472347597681e-18,2.80910918448386
106.5,-6.50521303491303e-19,-1.73472347597681e-18,2.55060063728245
106.5625,-6.50521303491303e-19,-8.67361737988404e-19,2.22928783743291
106.625,-6.50521303491303e-19,-8.67361737988404e-19,1.85308257244393
106.6875,-5.42101086242752e-19,-4.33680868994202e-19,1.43124826449261
106.75,-2.16840434497101e-19,-4.33680868994202e-19,0.974171874228827
106.8125,-1.0842021724855e-19,-2.16840434497101e-19,0.493108139330604
106.875,2.64697796016969e-23,2.64697796016969e-23,-9.75544901844284e-05
106.9375,5.42101086242752e-20,0,-0.493300846195652
107,2.16840434497101e-19,4.33680868994202e-19,-0.974357433895775
107.0625,3.25260651745651e-19,8.67361737988404e-19,-1.43142210786682
107.125,4.33680868994202e-19,8.67361737988404e-19,-1.85324041892456
107.1875,1.0842021724855e-18,1.73472347597681e-18,-2.22942580031576
107.25,4.33680868994202e-19,8.67361737988404e-19,-2.55071531946346
107.3125,8.67361737988404e-19,8.67361737988404e-19,-2.80919776210714
107.375,4.33680868994202e-19,8.67361737988404e-19,-2.99850843265482
107.4375,8.67361737988404e-19,8.67361737988404e-19,-3.11398587411165
107.5,8.67361737988404e-19,1.73472347597681e-18,-3.15278664862121
107.5625,6.50521303491303e-19,0,-3.11395535234276
107.625,6.50521303491303e-19,8.67361737988404e-19,-2.99844814066429
107.6875,1.0842021724855e-18,1.73472347597681e-18,-2.80910918448377
107.75,6.50521303491303e-19,0,-2.55060063728261
107.8125,4.33680868994202e-19,8.67361737988404e-19,-2.22928783743312
107.875,4.33680868994202e-19,8.67361737988404e-19,-1.85308257244383
107.9375,1.0842021724855e-19,4.33680868994202e-19,-1.43124826449267
108,4.33680868994202e-19,4.33680868994202e-19,-0.974171874228878
108.0625,1.62630325872826e-19,0,-0.493108139330493
108.125,-2.64697796016969e-23,-2.64697796016969e-23,9.75544899845438e-05
108.1875,-1.0842021724855e-19,0,0.493300846195506
108.25,-2.16840434497101e-19,0,0.974357433896058
108.3125,-3.25260651745651e-19,-8.67361737988404e-19,1.43142210786679
108.375,-6.50521303491303e-19,-8.67361737988404e-19,1.85324041892457
108.4375,-4.33680868994202e-19,0,2.22942580031609
108.5,-6.50521303491303e-19,-8.67361737988404e-19,2.55071531946369
108.5625,-8.67361737988404e-19,-8.67361737988404e-19,2.80919776210733
108.625,-6.50521303491303e-19,-8.67361737988404e-19,2.99850843265502
108.6875,-8.67361737988404e-19,-8.67361737988404e-19,3.11398587411171
108.75,-1.0842021724855e-18,-1.73472347597681e-18,3.15278664862123
108.8125,-8.67361737988404e-19,-1.73472347597681e-18,3.11395535234266
108.875,-8.67361737988404e-19,-1.73472347597681e-18,2.99844814066426
108.9375,-8.67361737988404e-19,-8.67361737988404e-19,2.80910918448372
109,-6.50521303491303e-19,0,2.55060063728231
109.0625,-4.33680868994202e-19,0,2.22928783743298
109.125,-4.33680868994202e-19,-8.67361737988404e-19,1.85308257244363
109.1875,-1.0842021724855e-19,-4.33680868994202e-19,1.43124826449234
109.25,-2.16840434497101e-19,-4.33680868994202e-19,0.974171874229031
109.3125,-1.0842021724855e-19,-2.16840434497101e-19,0.49310813933056
109.375,3.30872245021211e-23,2.64697796016969e-23,-9.75544902159017e-05
109.4375,1.0842021724855e-19,0,-0.493300846195231
109.5,1.0842021724855e-19,0,-0.974357433895761
109.5625,4.33680868994202e-19,4.33680868994202e-19,-1.43142210786682
109.625,4.33680868994202e-19,8.67361737988404e-19,-1.85324041892458
109.6875,2.16840434497101e-19,0,-2.22942580031597
109.75,8.67361737988404e-19,1.73472347597681e-18,-2.55071531946366
109.8125,4.33680868994202e-19,0,-2.80919776210732
109.875,6.50521303491303e-19,8.67361737988404e-19,-2.99850843265491
109.9375,8.67361737988404e-19,8.67361737988404e-19,-3.11398587411173
110,4.33680868994202e-19,1.73472347597681e-18,-3.15278664862128
110.0625,4.33680868994202e-19,1.73472347597681e-18,-3.11395535234281
110.125,4.33680868994202e-19,8.67361737988404e-19,-2.9984481406643
110.1875,2.16840434497101e-19,8.67361737988404e-19,-2.80910918448376
110.25,6.50521303491303e-19,1.73472347597681e-18,-2.5506006372824
110.3125,6.50521303491303e-19,8.67361737988404e-19,-2.22928783743285
110.375,4.33680868994202e-19,8.67361737988404e-19,-1.85308257244353
110.4375,4.33680868994202e-19,4.33680868994202e-19,-1.4312482644925
110.5,3.25260651745651e-19,0,-0.974171874228695
110.5625,1.62630325872826e-19,2.16840434497101e-19,-0.493108139330291
110.625,-1.32348898008484e-23,0,9.75544900779247e-05
110.6875,-1.62630325872826e-19,-2.16840434497101e-19,0.493300846195556
110.75,-2.16840434497101e-19,-4.33680868994202e-19,0.974357433896033
110.8125,-4.33680868994202e-19,-4.33680868994202e-19,1.43142210786692
110.875,-4.33680868994202e-19,-8.67361737988404e-19,1.85324041892464
110.9375,-6.50521303491303e-19,-8.67361737988404e-19,2.2294258003161
111,-6.50521303491303e-19,-1.73472347597681e-18,2.55071531946353
111.0625,-6.50521303491303e-19,0,2.80919776210718
111.125,-6.50521303491303e-19,-8.67361737988404e-19,2.99850843265489
111.1875,-6.50521303491303e-19,-8.67361737988404e-19,3.1139858741116
111.25,-6.50521303491303e-19,-1.73472347597681e-18,3.15278664862118
111.3125,-1.0842021724855e-18,-1.73472347597681e-18,3.11395535234269
111.375,-8.67361737988404e-19,-8.67361737988404e-19,2.99844814066425
111.4375,-2.16840434497101e-19,-8.67361737988404e-19,2.80910918448373
111.5,-6.50521303491303e-19,-8.67361737988404e-19,2.55060063728232
111.5625,-6.50521303491303e-19,0,2.22928783743305
111.625,-4.33680868994202e-19,-1.73472347597681e-18,1.85308257244376
111.6875,-4.33680868994202e-19,-4.33680868994202e-19,1.43124826449242
111.75,-2.16840434497101e-19,-4.33680868994202e-19,0.974171874229037
111.8125,-1.0842021724855e-19,-2.16840434497101e-19,0.493108139330624
111.875,3.30872245021211e-23,2.64697796016969e-23,-9.75544901918231e-05
111.9375,1.62630325872826e-19,0,-0.493300846195536
112,3.25260651745651e-19,4.33680868994202e-19,-0.974357433896053
112.0625,2.16840434497101e-19,8.67361737988404e-19,-1.4314221078671
112.125,2.16840434497101e-19,8.67361737988404e-19,-1.85324041892455
112.1875,2.16840434497101e-19,0,-2.22942580031603
112.25,8.67361737988404e-19,1.73472347597681e-18,-2.55071531946369
112.3125,1.0842021724855e-18,8.67361737988404e-19,-2.80919776210714
112.375,6.50521303491303e-19,2.60208521396521e-18,-2.99850843265486
112.4375,8.67361737988404e-19,8.67361737988404e-19,-3.11398587411164
112.5,6.50521303491303e-19,1.73472347597681e-18,-3.15278664862118
112.5625,4.33680868994202e-19,8.67361737988404e-19,-3.11395535234267
112.625,6.50521303491303e-19,0,-2.99844814066413
112.6875,6.50521303491303e-19,8.67361737988404e-19,-2.80910918448376
112.75,6.50521303491303e-19,0,-2.55060063728236
112.8125,4.33680868994202e-19,0,-2.22928783743285
112.875,2.16840434497101e-19,8.67361737988404e-19,-1.85308257244398
112.9375,4.33680868994202e-19,8.67361737988404e-19,-1.43124826449265
113,2.16840434497101e-19,4.33680868994202e-19,-0.974171874228874
113.0625,1.0842021724855e-19,0,-0.493108139330743
113.125,-1.98523347012727e-23,-2.64697796016969e-23,9.75544901606044e-05
113.1875,-1.0842021724855e-19,-2.16840434497101e-19,0.493300846195652
113.25,-3.25260651745651e-19,-4.33680868994202e-19,0.97435743389571
113.3125,-2.16840434497101e-19,-4.33680868994202e-19,1.43142210786689
113.375,-4.33680868994202e-19,0,1.85324041892466
113.4375,-4.33680868994202e-19,0,2.22942580031583
113.5,-4.33680868994202e-19,-1.73472347597681e-18,2.55071531946355
113.5625,0,0,2.80919776210724
113.625,-8.67361737988404e-19,-1.73472347597681e-18,2.99850843265495
113.6875,-6.50521303491303e-19,-8.67361737988404e-19,3.1139858741117
113.75,-8.67361737988404e-19,-1.73472347597681e-18,3.15278664862123
113.8125,-6.50521303491303e-19,-8.67361737988404e-19,3.11395535234267
113.875,-6.50521303491303e-19,-8.67361737988404e-19,2.99844814066423
113.9375,-8.67361737988404e-19,-1.73472347597681e-18,2.80910918448369
114,-6.50521303491303e-19,0,2.55060063728226
114.0625,-6.50521303491303e-19,-8.67361737988404e-19,2.22928783743302
114.125,-6.50521303491303e-19,-1.73472347597681e-18,1.85308257244375
114.1875,-2.16840434497101e-19,-4.33680868994202e-19,1.43124826449244
114.25,-2.16840434497101e-19,-4.33680868994202e-19,0.974171874228795
114.3125,-1.62630325872826e-19,-2.16840434497101e-19,0.493108139330404
114.375,1.98523347012727e-23,5.29395592033938e-23,-9.75544903899245e-05
114.4375,1.0842021724855e-19,0,-0.493300846195507
114.5,3.25260651745651e-19,0,-0.974357433896005
114.5625,3.25260651745651e-19,8.67361737988404e-19,-1.43142210786704
114.625,4.33680868994202e-19,8.67361737988404e-19,-1.85324041892443
114.6875,6.50521303491303e-19,1.73472347597681e-18,-2.22942580031593
114.75,6.50521303491303e-19,1.73472347597681e-18,-2.5507153194636
114.8125,6.50521303491303e-19,0,-2.80919776210719
114.875,8.67361737988404e-19,1.73472347597681e-18,-2.9985084326549
114.9375,6.50521303491303e-19,1.73472347597681e-18,-3.11398587411168
115,8.67361737988404e-19,1.73472347597681e-18,-3.15278664862121
115.0625,1.0842021724855e-18,8.67361737988404e-19,-3.11395535234271
115.125,8.67361737988404e-19,8.67361737988404e-19,-2.9984481406642
115.1875,4.33680868994202e-19,0,-2.80910918448386
115.25,4.33680868994202e-19,8.67361737988404e-19,-2.55060063728246
115.3125,4.33680868994202e-19,0,-2.22928783743294
115.375,4.33680868994202e-19,0,-1.85308257244377
115.4375,1.0842021724855e-19,4.33680868994202e-19,-1.43124826449243
115.5,3.25260651745651e-19,4.33680868994202e-19,-0.974171874228634
115.5625,1.62630325872826e-19,2.16840434497101e-19,-0.4931081393306
115.625,-1.98523347012727e-23,-2.64697796016969e-23,9.75544902178588e-05
115.6875,-1.62630325872826e-19,-4.33680868994202e-19,0.493300846195705
115.75,-1.0842021724855e-19,0,0.974357433895786
115.8125,-4.33680868994202e-19,-8.67361737988404e-19,1.43142210786686
115.875,-4.33680868994202e-19,-8.67361737988404e-19,1.8532404189246
115.9375,-6.50521303491303e-19,0,2.22942580031597
116,0,-8.67361737988404e-19,2.55071531946364
116.0625,-4.33680868994202e-19,0,2.80919776210727
116.125,-6.50521303491303e-19,-1.73472347597681e-18,2.99850843265485
116.1875,-8.67361737988404e-19,-8.67361737988404e-19,3.11398587411164
116.25,-4.33680868994202e-19,-1.73472347597681e-18,3.15278664862118
116.3125,-8.67361737988404e-19,-8.67361737988404e-19,3.11395535234273
116.375,-8.67361737988404e-19,0,2.99844814066426
116.4375,-4.33680868994202e-19,0,2.80910918448374
116.5,-6.50521303491303e-19,-8.67361737988404e-19,2.55060063728241
116.5625,-4.33680868994202e-19,-8.67361737988404e-19,2.22928783743291
116.625,-2.16840434497101e-19,-8.67361737988404e-19,1.85308257244361
116.6875,-4.33680868994202e-19,-4.33680868994202e-19,1.43124826449261
116.75,-2.16840434497101e-19,0,0.974171874228802
116.8125,-1.0842021724855e-19,-4.33680868994202e-19,0.493108139330386
116.875,2.64697796016969e-23,2.64697796016969e-23,-9.75544899555632e-05
116.9375,1.62630325872826e-19,4.33680868994202e-19,-0.493300846195517
117,3.25260651745651e-19,0,-0.974357433896038
117.0625,3.25260651745651e-19,8.67361737988404e-19,-1.43142210786687
117.125,6.50521303491303e-19,8.67361737988404e-19,-1.85324041892471
117.1875,6.50521303491303e-19,0,-2.22942580031618
117.25,4.33680868994202e-19,8.67361737988404e-19,-2.55071531946355
117.3125,6.50521303491303e-19,0,-2.80919776210726
117.375,8.67361737988404e-19,1.73472347597681e-18,-2.99850843265494
117.4375,2.16840434497101e-19,8.67361737988404e-19,-3.11398587411163
117.5,8.67361737988404e-19,8.67361737988404e-19,-3.15278664862119
117.5625,8.67361737988404e-19,8.67361737988404e-19,-3.11395535234265
117.625,8.67361737988404e-19,0,-2.99844814066412
117.6875,2.16840434497101e-19,8.67361737988404e-19,-2.80910918448366
117.75,6.50521303491303e-19,1.73472347597681e-18,-2.55060063728224
117.8125,4.33680868994202e-19,0,-2.22928783743271
117.875,6.50521303491303e-19,8.67361737988404e-19,-1.85308257244371
117.9375,3.25260651745651e-19,4.33680868994202e-19,-1.43124826449241
118,3.25260651745651e-19,4.33680868994202e-19,-0.974171874229066
118.0625,5.42101086242752e-20,0,-0.493108139330662
118.125,-3.30872245021211e-23,-5.29395592033938e-23,9.7554490139216e-05
118.1875,-1.0842021724855e-19,0,0.493300846195631
118.25,-2.16840434497101e-19,-4.33680868994202e-19,0.974357433895998
118.3125,-3.25260651745651e-19,0,1.43142210786707
118.375,-2.16840434497101e-19,-8.67361737988404e-19,1.85324041892482
118.4375,-2.16840434497101e-19,-8.67361737988404e-19,2.22942580031604
118.5,-6.50521303491303e-19,-8.67361737988404e-19,2.55071531946371
118.5625,-6.50521303491303e-19,-8.67361737988404e-19,2.80919776210735
118.625,-6.50521303491303e-19,-8.67361737988404e-19,2.99850843265491
118.6875,-1.30104260698261e-18,-8.67361737988404e-19,3.1139858741117
118.75,-6.50521303491303e-19,-8.67361737988404e-19,3.15278664862122
118.8125,-6.50521303491303e-19,-1.73472347597681e-18,3.11395535234269
118.875,-8.67361737988404e-19,-1.73472347597681e-18,2.99844814066415
118.9375,-6.50521303491303e-19,-1.73472347597681e-18,2.80910918448359
119,-8.67361737988404e-19,-8.67361737988404e-19,2.55060063728236
119.0625,-4.33680868994202e-19,0,2.22928783743283
