time,ax,ay,az
0,2.16840434497101e-19,0,-0.633138363110807
0.0625,0,0,-0.625210277367838
0.125,1.62630325872826e-19,2.16840434497101e-19,-0.601586221704886
0.1875,1.0842021724855e-19,4.33680868994202e-19,-0.56292496644484
0.25,1.0842021724855e-19,4.33680868994202e-19,-0.51028702876136
0.3125,5.42101086242752e-20,0,-0.445091272477779
0.375,1.0842021724855e-19,2.16840434497101e-19,-0.369060992987893
0.4375,8.13151629364128e-20,1.0842021724855e-19,-0.284163801728238
0.5,2.71050543121376e-20,5.42101086242752e-20,-0.192549423579002
0.5625,1.35525271560688e-20,2.71050543121376e-20,-0.0964888987540521
0.625,-2.11758236813575e-22,-4.2351647362715e-22,0.00168230292634595
0.6875,-2.03287907341032e-20,-5.42101086242752e-20,0.0996159170275783
0.75,-4.06575814682064e-20,-5.42101086242752e-20,0.194997091086478
0.8125,-1.0842021724855e-19,-2.16840434497101e-19,0.285585953756351
0.875,-8.13151629364128e-20,-1.0842021724855e-19,0.369255969959168
0.9375,-1.0842021724855e-19,-2.16840434497101e-19,0.444030717476805
1,-5.42101086242752e-20,0,0.508120498237276
1.0625,-1.0842021724855e-19,-2.16840434497101e-19,0.559959598022723
1.125,-1.62630325872826e-19,0,0.59824414776415
1.1875,-2.71050543121376e-19,-2.16840434497101e-19,0.621969574096076
1.25,-1.62630325872826e-19,0,0.630465727068336
1.3125,-2.16840434497101e-19,-2.16840434497101e-19,0.623427097284983
1.375,-3.25260651745651e-19,-4.33680868994202e-19,0.600935205300767
1.4375,-1.62630325872826e-19,-4.33680868994202e-19,0.563470330501933
1.5,-1.62630325872826e-19,0,0.511910248904152
1.5625,-1.0842021724855e-19,-2.16840434497101e-19,0.447514510220004
1.625,-8.13151629364128e-20,-1.0842021724855e-19,0.371893892125396
1.6875,-8.13151629364128e-20,0,0.286965876692028
1.75,-5.42101086242752e-20,-1.0842021724855e-19,0.19489814074422
1.8125,-1.35525271560688e-20,-2.71050543121376e-20,0.0980429900991589
1.875,1.05879118406788e-22,8.470329472543e-22,-0.0011337182087265
1.9375,2.71050543121376e-20,5.42101086242752e-20,-0.100125398167619
2,2.71050543121376e-20,1.0842021724855e-19,-0.196455710784992
2.0625,8.13151629364128e-20,1.0842021724855e-19,-0.287744633418715
2.125,1.0842021724855e-19,2.16840434497101e-19,-0.371767351421987
2.1875,5.42101086242752e-20,2.16840434497101e-19,-0.446504623577103
2.25,1.62630325872826e-19,2.16840434497101e-19,-0.510184190634959
2.3125,1.62630325872826e-19,0,-0.561313581027594
2.375,1.62630325872826e-19,4.33680868994202e-19,-0.598705219227541
2.4375,2.71050543121376e-19,4.33680868994202e-19,-0.621495002173619
2.5,1.0842021724855e-19,0,-0.629155468749989
2.5625,1.62630325872826e-19,4.33680868994202e-19,-0.621504386105305
2.625,5.42101086242752e-20,2.16840434497101e-19,-0.59870909472136
2.6875,1.62630325872826e-19,0,-0.561286398170354
2.75,2.16840434497101e-19,4.33680868994202e-19,-0.510097268912437
2.8125,1.62630325872826e-19,2.16840434497101e-19,-0.446335274207374
2.875,8.13151629364128e-20,2.16840434497101e-19,-0.371507486181115
2.9375,8.13151629364128e-20,1.0842021724855e-19,-0.287406769235349
3,6.7762635780344e-20,1.0842021724855e-19,-0.19607473438071
3.0625,2.03287907341032e-20,5.42101086242752e-20,-0.0997552688909908
3.125,4.2351647362715e-22,4.2351647362715e-22,-0.000839310705883869
3.1875,-2.03287907341032e-20,-5.42101086242752e-20,0.098197662649525
3.25,-1.35525271560688e-20,0,0.194863230970552
3.3125,-5.42101086242752e-20,-2.16840434497101e-19,0.28671795514079
3.375,-1.0842021724855e-19,-2.16840434497101e-19,0.37144455593508
3.4375,-1.0842021724855e-19,-2.16840434497101e-19,0.446913250548226
3.5,-1.62630325872826e-19,-2.16840434497101e-19,0.511240412299116
3.5625,-1.62630325872826e-19,-2.16840434497101e-19,0.562838231682154
3.625,-1.62630325872826e-19,0,0.600453748920488
3.6875,-1.62630325872826e-19,-2.16840434497101e-19,0.623196407606075
3.75,-1.0842021724855e-19,-6.50521303491303e-19,0.630554047028172
3.8125,-1.62630325872826e-19,-2.16840434497101e-19,0.622397916109423
3.875,-1.62630325872826e-19,-4.33680868994202e-19,0.598977783740701
3.9375,-1.62630325872826e-19,-2.16840434497101e-19,0.560908497940918
4,-1.0842021724855e-19,0,0.509149403392564
4.0625,-1.0842021724855e-19,-2.16840434497101e-19,0.444977890948475
4.125,-1.35525271560688e-19,-1.0842021724855e-19,0.369958078919313
4.1875,-5.42101086242752e-20,0,0.285905287501208
4.25,-5.42101086242752e-20,0,0.194846643395548
4.3125,-2.03287907341032e-20,-2.71050543121376e-20,0.0989779132401436
4.375,-1.05879118406788e-22,-2.11758236813575e-22,0.000616565376078619
4.4375,2.03287907341032e-20,5.42101086242752e-20,-0.0978488731125047
4.5,4.06575814682064e-20,0,-0.194012866064194
4.5625,5.42101086242752e-20,0,-0.285509663651575
4.625,1.0842021724855e-19,1.0842021724855e-19,-0.370071743093556
4.6875,5.42101086242752e-20,2.16840434497101e-19,-0.445588348017551
4.75,1.62630325872826e-19,0,-0.510162200208548
4.8125,1.0842021724855e-19,2.16840434497101e-19,-0.562162209954967
4.875,1.62630325872826e-19,4.33680868994202e-19,-0.600269943506521
4.9375,2.16840434497101e-19,2.16840434497101e-19,-0.623517741272528
5,2.16840434497101e-19,2.16840434497101e-19,-0.6313167133411
5.0625,1.0842021724855e-19,2.16840434497101e-19,-0.623473337837524
5.125,2.16840434497101e-19,2.16840434497101e-19,-0.600193998854097
5.1875,1.62630325872826e-19,4.33680868994202e-19,-0.562077456723484
5.25,1.62630325872826e-19,2.16840434497101e-19,-0.510095872994103
5.3125,1.0842021724855e-19,0,-0.445565550661609
5.375,8.13151629364128e-20,1.0842021724855e-19,-0.370108947311797
5.4375,2.71050543121376e-20,2.16840434497101e-19,-0.285609746717814
5.5,4.06575814682064e-20,0,-0.194162829478334
5.5625,1.35525271560688e-20,2.71050543121376e-20,-0.0980208855336187
5.625,-1.05879118406788e-22,0,0.000460799746052794
5.6875,-2.03287907341032e-20,0,0.0988801270052195
5.75,-6.7762635780344e-20,-5.42101086242752e-20,0.194843551985142
5.8125,-5.42101086242752e-20,0,0.286020297143353
5.875,-8.13151629364128e-20,-1.0842021724855e-19,0.370194813638989
5.9375,-1.0842021724855e-19,-2.16840434497101e-19,0.44531695302593
6,-1.0842021724855e-19,-2.16840434497101e-19,0.509549259053135
6.0625,-2.16840434497101e-19,0,0.561310661129462
6.125,-2.71050543121376e-19,-2.16840434497101e-19,0.599315678481646
6.1875,-1.62630325872826e-19,-2.16840434497101e-19,0.622608073378118
6.25,-1.0842021724855e-19,0,0.630587770317062
6.3125,-1.62630325872826e-19,-2.16840434497101e-19,0.623029827089936
6.375,-1.0842021724855e-19,-4.33680868994202e-19,0.600094331787324
6.4375,-5.42101086242752e-20,-2.16840434497101e-19,0.562326318500829
6.5,-1.0842021724855e-19,-4.33680868994202e-19,0.510645135923594
6.5625,-1.0842021724855e-19,-2.16840434497101e-19,0.446323141364488
6.625,-1.0842021724855e-19,-2.16840434497101e-19,0.370954087581229
6.6875,-8.13151629364128e-20,0,0.286412072435972
6.75,-4.06575814682064e-20,5.42101086242752e-20,0.194802381206034
6.8125,-2.03287907341032e-20,-5.42101086242752e-20,0.0984059233854045
6.875,7.94093388050907e-23,0,-0.000380783553928476
6.9375,3.3881317890172e-20,2.71050543121376e-20,-0.0991080195249473
7,5.42101086242752e-20,1.0842021724855e-19,-0.195335620401688
7.0625,5.42101086242752e-20,1.0842021724855e-19,-0.286694204865318
7.125,1.0842021724855e-19,1.0842021724855e-19,-0.370943228468006
7.1875,1.62630325872826e-19,2.16840434497101e-19,-0.446024522101905
7.25,1.0842021724855e-19,2.16840434497101e-19,-0.510110283627305
7.3125,1.0842021724855e-19,0,-0.56164477894305
7.375,2.16840434497101e-19,2.16840434497101e-19,-0.599379243878058
7.4375,1.0842021724855e-19,2.16840434497101e-19,-0.622399645168653
7.5,2.16840434497101e-19,4.33680868994202e-19,-0.630147055870592
7.5625,5.42101086242752e-20,0,-0.622430439709294
7.625,1.62630325872826e-19,2.16840434497101e-19,-0.599431642626518
7.6875,1.62630325872826e-19,2.16840434497101e-19,-0.561702386947814
7.75,1.62630325872826e-19,2.16840434497101e-19,-0.510153084016552
7.8125,1.0842021724855e-19,2.16840434497101e-19,-0.446033350438558
7.875,5.42101086242752e-20,1.0842021724855e-19,-0.370904248184725
7.9375,8.13151629364128e-20,0,-0.286602474934154
8,5.42101086242752e-20,5.42101086242752e-20,-0.195197000618557
8.0625,2.71050543121376e-20,2.71050543121376e-20,-0.0989389596448176
8.125,5.29395592033938e-23,1.05879118406788e-22,-0.00020593703750882
8.1875,-2.03287907341032e-20,-2.71050543121376e-20,0.0985579029813228
8.25,-4.06575814682064e-20,-5.42101086242752e-20,0.194904139636103
8.3125,-5.42101086242752e-20,-1.0842021724855e-19,0.286442987086011
8.375,-8.13151629364128e-20,-1.0842021724855e-19,0.370904798740961
8.4375,-1.0842021724855e-19,0,0.446198266285203
8.5,-2.16840434497101e-19,0,0.510463541308211
8.5625,-1.0842021724855e-19,-2.16840434497101e-19,0.562118746387231
8.625,-1.0842021724855e-19,-2.16840434497101e-19,0.599898649742827
8.6875,-5.42101086242752e-20,-2.16840434497101e-19,0.622884622877121
8.75,-1.0842021724855e-19,0,0.630525352138701
8.8125,-1.0842021724855e-19,-2.16840434497101e-19,0.622648104065777
8.875,-1.0842021724855e-19,-2.16840434497101e-19,0.599460628313844
8.9375,-5.42101086242752e-20,-2.16840434497101e-19,0.561544007730183
9,-1.0842021724855e-19,0,0.509836929550963
9.0625,-1.0842021724855e-19,0,0.445611961182272
9.125,-5.42101086242752e-20,-1.0842021724855e-19,0.370444482569027
9.1875,-8.13151629364128e-20,-2.16840434497101e-19,0.286174973267251
9.25,-6.7762635780344e-20,-5.42101086242752e-20,0.194865395426235
9.3125,-1.35525271560688e-20,-5.42101086242752e-20,0.0987504706893599
9.375,-5.29395592033938e-23,-1.05879118406788e-22,0.000184730555276757
9.4375,2.03287907341032e-20,2.71050543121376e-20,-0.0984136706611151
9.5,4.06575814682064e-20,5.42101086242752e-20,-0.194621258500066
9.5625,2.71050543121376e-20,0,-0.286068391929532
9.625,1.0842021724855e-19,2.16840434497101e-19,-0.370497868181745
9.6875,5.42101086242752e-20,0,-0.445821473614715
9.75,1.62630325872826e-19,4.33680868994202e-19,-0.510172919813078
9.8125,1.0842021724855e-19,0,-0.56195561566881
9.875,5.42101086242752e-20,2.16840434497101e-19,-0.599883815339816
9.9375,2.16840434497101e-19,2.16840434497101e-19,-0.623015851130501
10,1.62630325872826e-19,0,-0.630778403065392
10.0625,1.0842021724855e-19,2.16840434497101e-19,-0.622981058768708
10.125,1.0842021724855e-19,0,-0.599820757520761
10.1875,1.0842021724855e-19,2.16840434497101e-19,-0.561876066762419
10.25,2.16840434497101e-19,2.16840434497101e-19,-0.510091583095274
10.3125,1.0842021724855e-19,0,-0.445753060753598
10.375,1.0842021724855e-19,2.16840434497101e-19,-0.37045413148235
10.4375,8.13151629364128e-20,2.16840434497101e-19,-0.28605568044558
10.5,4.06575814682064e-20,0,-0.194639080408318
10.5625,2.03287907341032e-20,5.42101086242752e-20,-0.0984545652340086
10.625,-2.64697796016969e-23,-5.29395592033938e-23,0.000133946388312549
10.6875,-3.3881317890172e-20,0,0.0987062717729003
10.75,-5.42101086242752e-20,-5.42101086242752e-20,0.194844351361027
10.8125,-8.13151629364128e-20,-2.16840434497101e-19,0.286190359331606
10.875,-8.13151629364128e-20,-1.0842021724855e-19,0.370503329704617
10.9375,-1.0842021724855e-19,-2.16840434497101e-19,0.445713119975169
11,-1.0842021724855e-19,-2.16840434497101e-19,0.509970560852255
11.0625,-1.0842021724855e-19,2.16840434497101e-19,0.56169266994092
11.125,-5.42101086242752e-20,-2.16840434497101e-19,0.599601849025342
11.1875,-2.16840434497101e-19,-4.33680868994202e-19,0.622758050451286
11.25,-1.62630325872826e-19,0,0.630582998870103
11.3125,-2.16840434497101e-19,-2.16840434497101e-19,0.62287569844242
11.375,-5.42101086242752e-20,-2.16840434497101e-19,0.59981864617461
11.4375,-1.62630325872826e-19,0,0.561974407470426
11.5,-1.0842021724855e-19,0,0.510272482513749
11.5625,-1.0842021724855e-19,-2.16840434497101e-19,0.445986688857058
11.625,-1.0842021724855e-19,-2.16840434497101e-19,0.370703589872517
11.6875,-2.71050543121376e-20,0,0.286282791945915
11.75,-6.7762635780344e-20,-1.0842021724855e-19,0.194810197186766
11.8125,-1.35525271560688e-20,-5.42101086242752e-20,0.0985455171420127
11.875,5.29395592033938e-23,5.29395592033938e-23,-0.000134485131455826
11.9375,3.3881317890172e-20,2.71050543121376e-20,-0.0987954586067256
12,4.06575814682064e-20,0,-0.195006032559921
12.0625,5.42101086242752e-20,1.0842021724855e-19,-0.286397912962548
12.125,5.42101086242752e-20,1.0842021724855e-19,-0.37072400479518
12.1875,1.62630325872826e-19,2.16840434497101e-19,-0.445913170979163
12.25,1.62630325872826e-19,2.16840434497101e-19,-0.510120377464723
12.3125,1.0842021724855e-19,2.16840434497101e-19,-0.561771127159251
12.375,5.42101086242752e-20,2.16840434497101e-19,-0.599599243585254
12.4375,5.42101086242752e-20,2.16840434497101e-19,-0.622677222531316
12.5,2.71050543121376e-19,2.16840434497101e-19,-0.630438524314355
12.5625,1.0842021724855e-19,2.16840434497101e-19,-0.622691331807949
12.625,1.62630325872826e-19,4.33680868994202e-19,-0.599623453812358
12.6875,2.71050543121376e-19,4.33680868994202e-19,-0.561798214562483
12.75,1.62630325872826e-19,2.16840434497101e-19,-0.510141342838285
12.8125,1.0842021724855e-19,2.16840434497101e-19,-0.445919061227399
12.875,2.71050543121376e-20,1.0842021724855e-19,-0.370707777759265
12.9375,5.42101086242752e-20,0,-0.286355995097335
13,4.06575814682064e-20,1.0842021724855e-19,-0.194939269921921
13.0625,3.3881317890172e-20,2.71050543121376e-20,-0.0987092672132743
13.125,9.92616735063633e-24,0,-3.81489836971446e-05
13.1875,-2.03287907341032e-20,-2.71050543121376e-20,0.098640297913183
13.25,-5.42101086242752e-20,0,0.194891266625354
13.3125,-5.42101086242752e-20,0,0.286339666707386
13.375,-5.42101086242752e-20,-1.0842021724855e-19,0.370729374954933
13.4375,-1.0842021724855e-19,0,0.445979426075807
13.5,-1.0842021724855e-19,0,0.510235667212155
13.5625,-1.0842021724855e-19,-2.16840434497101e-19,0.56191654854025
13.625,-1.62630325872826e-19,-4.33680868994202e-19,0.599751910419971
13.6875,-2.71050543121376e-19,-4.33680868994202e-19,0.622813844363542
13.75,-1.0842021724855e-19,0,0.630538938385132
13.8125,-2.16840434497101e-19,-2.16840434497101e-19,0.622741455762338
13.875,-1.62630325872826e-19,0,0.599617230393252
13.9375,-1.0842021724855e-19,-2.16840434497101e-19,0.561738284820767
14,-1.62630325872826e-19,-2.16840434497101e-19,0.510038384493037
14.0625,-1.0842021724855e-19,-4.33680868994202e-19,0.445789932451796
14.125,-1.0842021724855e-19,-1.0842021724855e-19,0.370572782964251
14.1875,-1.0842021724855e-19,-2.16840434497101e-19,0.286235712419537
14.25,-2.71050543121376e-20,-1.0842021724855e-19,0.194851433089642
14.3125,-1.35525271560688e-20,-5.42101086242752e-20,0.0986661713776774
14.375,-6.61744490042422e-24,0,4.49567463948002e-05
14.4375,2.03287907341032e-20,5.42101086242752e-20,-0.0985861214421246
14.5,6.7762635780344e-20,1.0842021724855e-19,-0.19479933843526
14.5625,5.42101086242752e-20,1.0842021724855e-19,-0.286225018784285
14.625,5.42101086242752e-20,0,-0.370610019149014
14.6875,1.0842021724855e-19,0,-0.44587354212777
14.75,5.42101086242752e-20,2.16840434497101e-19,-0.510158850271112
14.8125,5.42101086242752e-20,2.16840434497101e-19,-0.56187953034681
14.875,2.16840434497101e-19,0,-0.599759084246029
14.9375,2.16840434497101e-19,2.16840434497101e-19,-0.622862792370468
15,5.42101086242752e-20,0,-0.63062100257586
15.0625,1.62630325872826e-19,2.16840434497101e-19,-0.622843234747011
15.125,1.0842021724855e-19,2.16840434497101e-19,-0.599722747828987
15.1875,1.0842021724855e-19,2.16840434497101e-19,-0.561831481549009
15.25,1.0842021724855e-19,4.33680868994202e-19,-0.510105547981
15.3125,1.62630325872826e-19,2.16840434497101e-19,-0.445821698280435
15.375,8.13151629364128e-20,1.0842021724855e-19,-0.370565418803205
15.4375,5.42101086242752e-20,1.0842021724855e-19,-0.286191512102232
15.5,4.06575814682064e-20,5.42101086242752e-20,-0.194778188090906
15.5625,2.71050543121376e-20,5.42101086242752e-20,-0.0985758274100953
15.625,-6.61744490042422e-24,-2.64697796016969e-23,4.83169096911642e-05
15.6875,-2.71050543121376e-20,-2.71050543121376e-20,0.0986681403787297
15.75,-6.7762635780344e-20,-5.42101086242752e-20,0.194858047193594
15.8125,-8.13151629364128e-20,-1.0842021724855e-19,0.286252248486544
15.875,-1.0842021724855e-19,-2.16840434497101e-19,0.370602604725922
15.9375,-1.0842021724855e-19,-2.16840434497101e-19,0.445833649627442
16,-1.0842021724855e-19,-4.33680868994202e-19,0.510093488624392
16.0625,-1.0842021724855e-19,-4.33680868994202e-19,0.561799345985941
16.125,-1.62630325872826e-19,-2.16840434497101e-19,0.599676642383471
16.1875,-1.62630325872826e-19,-4.33680868994202e-19,0.622790620171945
16.25,-1.0842021724855e-19,-2.16840434497101e-19,0.630569697139305
16.3125,0,-2.16840434497101e-19,0.622819919863495
16.375,-1.0842021724855e-19,0,0.599730102221712
16.4375,-1.0842021724855e-19,0,0.561867468200912
16.5,-1.62630325872826e-19,0,0.510163864297942
16.5625,-5.42101086242752e-20,-2.16840434497101e-19,0.445892857304372
16.625,-5.42101086242752e-20,-1.0842021724855e-19,0.370638279032337
16.6875,-8.13151629364128e-20,0,0.286255011185005
16.75,-4.06575814682064e-20,-5.42101086242752e-20,0.194823012236325
16.8125,-2.71050543121376e-20,-5.42101086242752e-20,0.0985957661647162
16.875,1.32348898008484e-23,2.64697796016969e-23,-5.5525763487929e-05
16.9375,4.06575814682064e-20,8.13151629364128e-20,-0.0987005881006529
17,2.71050543121376e-20,0,-0.194910068421562
17.0625,5.42101086242752e-20,1.0842021724855e-19,-0.286315390788046
17.125,5.42101086242752e-20,1.0842021724855e-19,-0.370666990085254
17.1875,5.42101086242752e-20,0,-0.445889510285321
17.25,1.62630325872826e-19,2.16840434497101e-19,-0.510132639904112
17.3125,1.62630325872826e-19,2.16840434497101e-19,-0.561816375426917
17.375,1.62630325872826e-19,2.16840434497101e-19,-0.599669644035775
17.4375,2.71050543121376e-19,2.16840434497101e-19,-0.622761376808471
17.5,1.62630325872826e-19,2.16840434497101e-19,-0.630523299510153
17.5625,2.71050543121376e-19,4.33680868994202e-19,-0.622763897522703
17.625,1.62630325872826e-19,2.16840434497101e-19,-0.599673212020666
17.6875,1.62630325872826e-19,4.33680868994202e-19,-0.561818333869025
17.75,1.0842021724855e-19,2.16840434497101e-19,-0.510129677198135
17.8125,1.0842021724855e-19,2.16840434497101e-19,-0.445878332865731
17.875,5.42101086242752e-20,2.16840434497101e-19,-0.370645018852779
17.9375,8.13151629364128e-20,2.16840434497101e-19,-0.286281354963587
18,6.7762635780344e-20,5.42101086242752e-20,-0.194864387128818
18.0625,2.71050543121376e-20,0,-0.0986454657543953
18.125,-1.24077091882954e-24,0,5.26356776484534e-06
18.1875,-2.03287907341032e-20,0,0.0986573761578604
18.25,-5.42101086242752e-20,-1.0842021724855e-19,0.194880224368075
18.3125,-1.0842021724855e-19,-1.0842021724855e-19,0.286303021373384
18.375,-5.42101086242752e-20,0,0.370673437262538
18.4375,-1.0842021724855e-19,-2.16840434497101e-19,0.44591323184873
18.5,-1.62630325872826e-19,0,0.510169529597305
18.5625,-1.0842021724855e-19,-2.16840434497101e-19,0.561860460883349
18.625,-1.0842021724855e-19,-2.16840434497101e-19,0.599714045671466
18.6875,-5.42101086242752e-20,0,0.622799374879259
18.75,-1.62630325872826e-19,-4.33680868994202e-19,0.630549344809904
18.8125,-2.16840434497101e-19,0,0.622774414681406
18.875,-2.71050543121376e-19,-4.33680868994202e-19,0.599667080263224
18.9375,-1.62630325872826e-19,-4.33680868994202e-19,0.561796982314045
19,-1.0842021724855e-19,-2.16840434497101e-19,0.51009679192766
19.0625,-1.0842021724855e-19,-2.16840434497101e-19,0.445839231751694
19.125,-5.42101086242752e-20,-1.0842021724855e-19,0.370605798646391
19.1875,-8.13151629364128e-20,-1.0842021724855e-19,0.286247946416933
19.25,-2.71050543121376e-20,-1.0842021724855e-19,0.194841663719122
19.3125,-2.03287907341032e-20,-5.42101086242752e-20,0.0986365390872292
19.375,-1.03397576569128e-25,-2.06795153138257e-25,5.39172274437018e-07
19.4375,2.03287907341032e-20,2.71050543121376e-20,-0.0986381654766245
19.5,1.35525271560688e-20,5.42101086242752e-20,-0.194850913606977
19.5625,8.13151629364128e-20,1.0842021724855e-19,-0.286268344939799
19.625,1.0842021724855e-19,1.0842021724855e-19,-0.370638797569637
19.6875,1.0842021724855e-19,2.16840434497101e-19,-0.445883862715033
19.75,1.62630325872826e-19,2.16840434497101e-19,-0.510149710373466
19.8125,1.0842021724855e-19,0,-0.56185289854013
19.875,2.16840434497101e-19,0,-0.599719513162196
19.9375,1.62630325872826e-19,2.16840434497101e-19,-0.622816652694832
20,1.62630325872826e-19,0,-0.63057546540878
20.0625,1.0842021724855e-19,2.16840434497101e-19,-0.622805163714394
20.125,1.62630325872826e-19,0,-0.599697671095511
20.1875,1.0842021724855e-19,4.33680868994202e-19,-0.561822796677193
20.25,1.62630325872826e-19,2.16840434497101e-19,-0.510114072774731
20.3125,5.42101086242752e-20,0,-0.445845625050105
20.375,5.42101086242752e-20,1.0842021724855e-19,-0.370600666789094
20.4375,8.13151629364128e-20,1.0842021724855e-19,-0.286232412779922
20.5,4.06575814682064e-20,0,-0.1948183897456
20.5625,2.71050543121376e-20,0,-0.0986092756584947
20.625,-3.30872245021211e-24,-1.32348898008484e-23,2.64731232622655e-05
20.6875,-2.03287907341032e-20,-2.71050543121376e-20,0.0986608519819195
20.75,-6.7762635780344e-20,-5.42101086242752e-20,0.194865976371671
20.8125,-8.13151629364128e-20,-1.0842021724855e-19,0.286273737682694
20.875,-5.42101086242752e-20,0,0.370633997148374
20.9375,-5.42101086242752e-20,-2.16840434497101e-19,0.445869902218452
21,-2.16840434497101e-19,-2.16840434497101e-19,0.51012897602971
21.0625,-5.42101086242752e-20,-2.16840434497101e-19,0.561828728260514
21.125,-2.16840434497101e-19,-2.16840434497101e-19,0.599695663377702
21.1875,-1.62630325872826e-19,-4.33680868994202e-19,0.622796718034351
21.25,-1.62630325872826e-19,-2.16840434497101e-19,0.630562340343527
21.3125,-2.16840434497101e-19,-2.16840434497101e-19,0.622800626261049
21.375,-2.16840434497101e-19,-2.16840434497101e-19,0.599702147807314
21.4375,-1.0842021724855e-19,-2.16840434497101e-19,0.561835338967511
21.5,-1.0842021724855e-19,0,0.510132541773395
21.5625,-1.62630325872826e-19,-2.16840434497101e-19,0.44586705076255
21.625,-8.13151629364128e-20,-2.16840434497101e-19,0.37062172202002
21.6875,-8.13151629364128e-20,0,0.286249926736231
21.75,-6.7762635780344e-20,-5.42101086242752e-20,0.19482982250265
21.8125,-2.71050543121376e-20,-2.71050543121376e-20,0.0986130829672585
21.875,3.30872245021211e-24,1.32348898008484e-23,-3.0636510483277e-05
21.9375,1.35525271560688e-20,2.71050543121376e-20,-0.0986721163210754
22,5.42101086242752e-20,1.0842021724855e-19,-0.19488242503508
22.0625,8.13151629364128e-20,1.0842021724855e-19,-0.286292728403948
22.125,8.13151629364128e-20,1.0842021724855e-19,-0.370652583234597
22.1875,5.42101086242752e-20,0,-0.445885287057045
22.25,1.62630325872826e-19,0,-0.510138931197337
22.3125,1.0842021724855e-19,2.16840434497101e-19,-0.561831913146191
22.375,1.0842021724855e-19,0,-0.599691800989
22.4375,1.62630325872826e-19,2.16840434497101e-19,-0.622786604758466
22.5,2.16840434497101e-19,2.16840434497101e-19,-0.630547693199062
22.5625,1.62630325872826e-19,2.16840434497101e-19,-0.622783795629228
22.625,0,2.16840434497101e-19,-0.599685743115766
22.6875,1.0842021724855e-19,2.16840434497101e-19,-0.561821826522365
22.75,1.0842021724855e-19,2.16840434497101e-19,-0.510123876357823
22.8125,1.62630325872826e-19,2.16840434497101e-19,-0.445864395657451
22.875,8.13151629364128e-20,1.0842021724855e-19,-0.370625297090225
22.9375,5.42101086242752e-20,1.0842021724855e-19,-0.286259003675265
23,4.06575814682064e-20,5.42101086242752e-20,-0.194842863513397
23.0625,4.06575814682064e-20,2.71050543121376e-20,-0.0986279975918301
23.125,-4.96308367531817e-24,-6.61744490042422e-24,1.61587910773364e-05
23.1875,-3.3881317890172e-20,-2.71050543121376e-20,0.0986602502681845
23.25,-5.42101086242752e-20,-1.0842021724855e-19,0.194874885088414
23.3125,-5.42101086242752e-20,-2.16840434497101e-19,0.286290523479024
23.375,-8.13151629364128e-20,-1.0842021724855e-19,0.370655885542585
23.4375,-1.0842021724855e-19,-2.16840434497101e-19,0.445893431330737
23.5,-5.42101086242752e-20,-2.16840434497101e-19,0.510150540504334
23.5625,-1.0842021724855e-19,-4.33680868994202e-19,0.561845128455706
23.625,-1.0842021724855e-19,-2.16840434497101e-19,0.599704576667598
23.6875,-1.0842021724855e-19,-2.16840434497101e-19,0.622797023348166
23.75,-1.0842021724855e-19,0,0.630554251325152
23.8125,-1.62630325872826e-19,-4.33680868994202e-19,0.62278561870108
23.875,-5.42101086242752e-20,-2.16840434497101e-19,0.59968269852305
23.9375,-1.0842021724855e-19,-4.33680868994202e-19,0.561814521283216
24,-1.62630325872826e-19,-2.16840434497101e-19,0.510113543061496
24.0625,-1.62630325872826e-19,-2.16840434497101e-19,0.445852687309754
24.125,-5.42101086242752e-20,-2.16840434497101e-19,0.370614024614858
24.1875,-5.42101086242752e-20,-1.0842021724855e-19,0.286249857471867
24.25,-5.42101086242752e-20,-5.42101086242752e-20,0.19483716163312
24.3125,-1.35525271560688e-20,0,0.0986264977839637
24.375,3.30872245021211e-24,3.30872245021211e-24,-1.33566843599819e-05
24.4375,2.71050543121376e-20,2.71050543121376e-20,-0.098653699545262
24.5,8.13151629364128e-20,1.0842021724855e-19,-0.194865688859354
24.5625,5.42101086242752e-20,1.0842021724855e-19,-0.286280151365038
24.625,5.42101086242752e-20,2.16840434497101e-19,-0.37064594051816
24.6875,1.0842021724855e-19,2.16840434497101e-19,-0.4458854034494
24.75,5.42101086242752e-20,-2.16840434497101e-19,-0.51014558512209
24.8125,1.0842021724855e-19,2.16840434497101e-19,-0.561843901728735
24.875,1.62630325872826e-19,2.16840434497101e-19,-0.599707151456163
24.9375,1.62630325872826e-19,0,-0.622802895809191
25,1.0842021724855e-19,2.16840434497101e-19,-0.630562434460203
25.0625,2.16840434497101e-19,2.16840434497101e-19,-0.622794806097976
25.125,1.0842021724855e-19,0,-0.599691471427307
25.1875,5.42101086242752e-20,2.16840434497101e-19,-0.56182156639791
25.25,1.0842021724855e-19,2.16840434497101e-19,-0.510117847836745
25.3125,1.62630325872826e-19,2.16840434497101e-19,-0.445853683888019
25.375,1.0842021724855e-19,1.0842021724855e-19,-0.370611662227915
25.4375,1.0842021724855e-19,0,-0.286244594507589
25.5,5.42101086242752e-20,5.42101086242752e-20,-0.194829880995563
25.5625,2.03287907341032e-20,5.42101086242752e-20,-0.0986183606526705
25.625,-6.61744490042422e-24,-1.32348898008484e-23,2.10947360105431e-05
25.6875,-2.03287907341032e-20,0,0.0986598811473774
25.75,-2.71050543121376e-20,-5.42101086242752e-20,0.194869426789544
25.8125,-8.13151629364128e-20,-1.0842021724855e-19,0.286280954476987
25.875,-1.0842021724855e-19,-1.0842021724855e-19,0.370643776012879
25.9375,-1.62630325872826e-19,0,0.445880687999191
26,-1.62630325872826e-19,-2.16840434497101e-19,0.510139108336162
26.0625,-1.0842021724855e-19,-2.16840434497101e-19,0.561836695568296
26.125,-5.42101086242752e-20,0,0.599700326965155
26.1875,-1.62630325872826e-19,-4.33680868994202e-19,0.622797472820969
26.25,-1.62630325872826e-19,-4.33680868994202e-19,0.630559190227782
26.3125,-1.62630325872826e-19,-2.16840434497101e-19,0.622794165152558
26.375,-5.42101086242752e-20,-2.16840434497101e-19,0.599693452065926
26.4375,-1.0842021724855e-19,-2.16840434497101e-19,0.561825790178211
26.5,-1.62630325872826e-19,-4.33680868994202e-19,0.510123608742579
26.5625,-1.62630325872826e-19,-2.16840434497101e-19,0.445860064912164
26.625,-1.0842021724855e-19,-1.0842021724855e-19,0.370617680322526
26.6875,-8.13151629364128e-20,-1.0842021724855e-19,0.286249351140517
26.75,-4.06575814682064e-20,0,0.194832695390437
26.8125,-3.3881317890172e-20,-2.71050543121376e-20,0.0986188660995325
26.875,4.96308367531817e-24,6.61744490042422e-24,-2.2904939959378e-05
26.9375,1.35525271560688e-20,2.71050543121376e-20,-0.0986636635496439
27,2.71050543121376e-20,1.0842021724855e-19,-0.194874550254231
27.0625,5.42101086242752e-20,2.16840434497101e-19,-0.286286604247319
27.125,5.42101086242752e-20,2.16840434497101e-19,-0.37064908238305
27.1875,5.42101086242752e-20,0,-0.445884859407094
27.25,1.62630325872826e-19,2.16840434497101e-19,-0.510141548629915
27.3125,1.0842021724855e-19,2.16840434497101e-19,-0.561837088202422
27.375,1.0842021724855e-19,2.16840434497101e-19,-0.599698674400129
27.4375,1.62630325872826e-19,2.16840434497101e-19,-0.622794086523973
27.5,5.42101086242752e-20,2.16840434497101e-19,-0.63055463427649
27.5625,2.16840434497101e-19,0,-0.622789163365198
27.625,1.0842021724855e-19,2.16840434497101e-19,-0.599688773793263
27.6875,1.0842021724855e-19,2.16840434497101e-19,-0.561822132661201
27.75,1.0842021724855e-19,4.33680868994202e-19,-0.510121493917965
27.8125,1.0842021724855e-19,2.16840434497101e-19,-0.445859765825356
27.875,8.13151629364128e-20,1.0842021724855e-19,-0.370619187374967
27.9375,5.42101086242752e-20,1.0842021724855e-19,-0.28625238207037
28,4.06575814682064e-20,5.42101086242752e-20,-0.1948367461582
28.0625,2.71050543121376e-20,2.71050543121376e-20,-0.0986232937542877
28.125,-4.96308367531817e-24,-6.61744490042422e-24,1.87809022652637e-05
28.1875,-2.71050543121376e-20,-2.71050543121376e-20,0.0986604572116676
28.25,-6.7762635780344e-20,0,0.1948727184784
28.3125,-5.42101086242752e-20,-2.16840434497101e-19,0.286286382377367
28.375,-8.13151629364128e-20,-1.0842021724855e-19,0.37065045536291
28.4375,-1.0842021724855e-19,-2.16840434497101e-19,0.445887571613278
28.5,-1.0842021724855e-19,0,0.510145149762761
28.5625,-1.62630325872826e-19,-2.16840434497101e-19,0.56184100721298
28.625,-1.62630325872826e-19,0,0.599702309434116
28.6875,-1.62630325872826e-19,-4.33680868994202e-19,0.622796896806744
28.75,-5.42101086242752e-20,-2.16840434497101e-19,0.630556219994345
28.8125,-5.42101086242752e-20,0,0.62278932183312
28.875,-1.62630325872826e-19,-2.16840434497101e-19,0.599687524136468
28.9375,-2.16840434497101e-19,-4.33680868994202e-19,0.561819706230726
29,-1.62630325872826e-19,0,0.510118292922813
29.0625,-1.0842021724855e-19,-2.16840434497101e-19,0.445856297392257
29.125,-8.13151629364128e-20,0,0.370615983742403
29.1875,-8.13151629364128e-20,-1.0842021724855e-19,0.28624991939609
29.25,-6.7762635780344e-20,-1.0842021724855e-19,0.194835374252387
29.3125,-1.35525271560688e-20,-2.71050543121376e-20,0.0986231870274881
29.375,1.65436122510606e-24,0,-1.76445034174782e-05
29.4375,2.71050543121376e-20,8.13151629364128e-20,-0.0986582869425133
29.5,5.42101086242752e-20,1.62630325872826e-19,-0.194869873522798
29.5625,8.13151629364128e-20,1.0842021724855e-19,-0.286283313041216
29.625,8.13151629364128e-20,2.16840434497101e-19,-0.3706476322717
29.6875,5.42101086242752e-20,0,-0.445885413975399
29.75,1.0842021724855e-19,2.16840434497101e-19,-0.510143963568433
29.8125,1.0842021724855e-19,2.16840434497101e-19,-0.561840942408249
29.875,1.0842021724855e-19,0,-0.59970334196963
29.9375,1.62630325872826e-19,4.33680868994202e-19,-0.622798837523266
30,1.0842021724855e-19,2.16840434497101e-19,-0.630558748192428
30.0625,1.0842021724855e-19,2.16840434497101e-19,-0.622792037708642
30.125,1.0842021724855e-19,2.16840434497101e-19,-0.599690011588441
30.1875,1.62630325872826e-19,2.16840434497101e-19,-0.561821596236404
30.25,5.42101086242752e-20,0,-0.510119317885528
30.3125,1.0842021724855e-19,2.16840434497101e-19,-0.445856328520985
30.375,2.71050543121376e-20,0,-0.370615046326243
30.4375,1.0842021724855e-19,1.0842021724855e-19,-0.286248184332333
30.5,4.06575814682064e-20,0,-0.194833127825359
30.5625,2.03287907341032e-20,2.71050543121376e-20,-0.0986207841614176
30.625,-6.61744490042422e-24,-1.32348898008484e-23,1.98359539222435e-05
30.6875,-2.03287907341032e-20,-2.71050543121376e-20,0.0986599421746095
30.75,-8.13151629364128e-20,-1.0842021724855e-19,0.194870758572175
30.8125,-2.71050543121376e-20,1.0842021724855e-19,0.286283317398483
30.875,-5.42101086242752e-20,-1.0842021724855e-19,0.370646781857176
30.9375,-1.0842021724855e-19,0,0.445883863104684
31,-1.0842021724855e-19,-4.33680868994202e-19,0.510141967756449
31.0625,-1.0842021724855e-19,-2.16840434497101e-19,0.561838816700385
31.125,-1.0842021724855e-19,0,0.599701411533917
31.1875,-1.62630325872826e-19,-2.16840434497101e-19,0.622797388203807
31.25,-1.0842021724855e-19,0,0.630557984497926
31.3125,-1.62630325872826e-19,-4.33680868994202e-19,0.622792054360696
31.375,-1.0842021724855e-19,-2.16840434497101e-19,0.599690782520022
31.4375,-5.42101086242752e-20,0,0.561822982176612
31.5,-1.0842021724855e-19,-4.33680868994202e-19,0.510121090823342
31.5625,-1.0842021724855e-19,-2.16840434497101e-19,0.445858208841566
31.625,-8.13151629364128e-20,-1.0842021724855e-19,0.370616746625195
31.6875,-1.0842021724855e-19,-2.16840434497101e-19,0.286249453084777
31.75,-5.42101086242752e-20,-5.42101086242752e-20,0.194833786314765
31.8125,-2.71050543121376e-20,0,0.0986207512909636
31.875,4.96308367531817e-24,6.61744490042422e-24,-2.05343517434132e-05
31.9375,2.03287907341032e-20,5.42101086242752e-20,-0.0986611804691471
32,2.71050543121376e-20,5.42101086242752e-20,-0.194872333332181
32.0625,5.42101086242752e-20,1.0842021724855e-19,-0.286284980483785
32.125,8.13151629364128e-20,2.16840434497101e-19,-0.370648279268254
32.1875,1.0842021724855e-19,0,-0.445884973545043
32.25,1.0842021724855e-19,2.16840434497101e-19,-0.510142535089273
32.3125,2.16840434497101e-19,2.16840434497101e-19,-0.561838771578201
32.375,2.16840434497101e-19,0,-0.59970077925938
32.4375,1.62630325872826e-19,2.16840434497101e-19,-0.622796282049439
32.5,1.0842021724855e-19,2.16840434497101e-19,-0.630556585932892
32.5625,1.0842021724855e-19,4.33680868994202e-19,-0.622790583568095
32.625,1.0842021724855e-19,0,-0.599689463953339
32.6875,1.0842021724855e-19,2.16840434497101e-19,-0.561822010510276
32.75,5.42101086242752e-20,2.16840434497101e-19,-0.510120602431267
32.8125,5.42101086242752e-20,0,-0.445858262947067
32.875,1.35525271560688e-19,1.0842021724855e-19,-0.370617318679245
32.9375,1.0842021724855e-19,1.0842021724855e-19,-0.286250441004226
33,6.7762635780344e-20,1.0842021724855e-19,-0.194835028249611
33.0625,2.03287907341032e-20,2.71050543121376e-20,-0.0986220518875538
33.125,-1.65436122510606e-24,0,1.93734165953352e-05
33.1875,-3.3881317890172e-20,-2.71050543121376e-20,0.09866033042696
33.25,-2.71050543121376e-20,0,0.194871913263081
33.3125,-8.13151629364128e-20,-1.0842021724855e-19,0.286285040894355
33.375,-8.13151629364128e-20,-1.0842021724855e-19,0.370648796528328
33.4375,-1.62630325872826e-19,-2.16840434497101e-19,0.445885855696157
33.5,-1.0842021724855e-19,-2.16840434497101e-19,0.510143637804002
33.5625,-1.0842021724855e-19,-2.16840434497101e-19,0.56183992155215
33.625,-5.42101086242752e-20,-4.33680868994202e-19,0.599701801276351
33.6875,-2.16840434497101e-19,-2.16840434497101e-19,0.622797025518695
33.75,-1.0842021724855e-19,0,0.630556946903989
33.8125,-2.16840434497101e-19,-2.16840434497101e-19,0.622790519032842
33.875,-2.16840434497101e-19,-2.16840434497101e-19,0.59968899650622
33.9375,-1.62630325872826e-19,-2.16840434497101e-19,0.561821222953953
34,-1.0842021724855e-19,0,0.510119623446008
34.0625,-1.0842021724855e-19,-2.16840434497101e-19,0.445857246259376
34.125,-1.0842021724855e-19,-1.0842021724855e-19,0.370616419073974
34.1875,-8.13151629364128e-20,-1.0842021724855e-19,0.286249790900868
34.25,-5.42101086242752e-20,-5.42101086242752e-20,0.194834718365233
34.3125,-2.03287907341032e-20,0,0.0986221187858217
34.375,4.96308367531817e-24,0,-1.89512167980121e-05
34.4375,4.06575814682064e-20,2.71050543121376e-20,-0.098659627453401
34.5,6.7762635780344e-20,1.0842021724855e-19,-0.194871044226387
34.5625,8.13151629364128e-20,1.0842021724855e-19,-0.286284142139495
34.625,5.42101086242752e-20,0,-0.370648004776587
34.6875,1.0842021724855e-19,0,-0.445885287371806
34.75,5.42101086242752e-20,2.16840434497101e-19,-0.510143372052174
34.8125,1.0842021724855e-19,2.16840434497101e-19,-0.561839989403143
34.875,2.71050543121376e-19,4.33680868994202e-19,-0.599702182408215
34.9375,1.0842021724855e-19,0,-0.622797652878164
35,1.62630325872826e-19,4.33680868994202e-19,-0.630557718250267
35.0625,1.0842021724855e-19,2.16840434497101e-19,-0.622791313450695
35.125,2.71050543121376e-19,4.33680868994202e-19,-0.599689693242866
35.1875,1.62630325872826e-19,0,-0.561821719662963
35.25,1.62630325872826e-19,2.16840434497101e-19,-0.510119851098909
35.3125,1.0842021724855e-19,2.16840434497101e-19,-0.445857178572109
35.375,8.13151629364128e-20,1.0842021724855e-19,-0.370616075188983
35.4375,8.13151629364128e-20,1.0842021724855e-19,-0.286249231123304
35.5,5.42101086242752e-20,0,-0.194834033807076
35.5625,2.03287907341032e-20,8.13151629364128e-20,-0.0986214166668323
35.625,-3.30872245021211e-24,-6.61744490042422e-24,1.95642588171624e-05
35.6875,-6.7762635780344e-21,-2.71050543121376e-20,0.0986600614607517
35.75,-2.71050543121376e-20,-1.0842021724855e-19,0.194871239012823
35.8125,-8.13151629364128e-20,0,0.286284075487468
35.875,-1.0842021724855e-19,-2.16840434497101e-19,0.370647694648935
35.9375,-1.0842021724855e-19,0,0.44588478798463
36,-1.0842021724855e-19,0,0.510142764587171
36.0625,-1.0842021724855e-19,-4.33680868994202e-19,0.561839368925242
36.125,-1.0842021724855e-19,-2.16840434497101e-19,0.599701643079942
36.1875,-1.0842021724855e-19,-4.33680868994202e-19,0.622797273756499
36.25,-1.0842021724855e-19,0,0.630557551795065
36.3125,-1.62630325872826e-19,-2.16840434497101e-19,0.622791378399337
36.375,-1.62630325872826e-19,-6.50521303491303e-19,0.59968997279633
36.4375,-1.0842021724855e-19,-2.16840434497101e-19,0.561822165097055
36.5,-5.42101086242752e-20,-2.16840434497101e-19,0.510120390091137
36.5625,-1.0842021724855e-19,-2.16840434497101e-19,0.445857726843664
36.625,-1.0842021724855e-19,-1.0842021724855e-19,0.370616549602237
36.6875,-8.13151629364128e-20,-1.0842021724855e-19,0.286249562211503
36.75,-4.06575814682064e-20,0,0.194834175859987
36.8125,-2.03287907341032e-20,-2.71050543121376e-20,0.0986213539216653
36.875,6.61744490042422e-24,1.32348898008484e-23,-1.98161390093045e-05
36.9375,2.03287907341032e-20,5.42101086242752e-20,-0.0986604587025293
37,5.42101086242752e-20,1.0842021724855e-19,-0.194871717195993
37.0625,5.42101086242752e-20,2.16840434497101e-19,-0.286284559903832
37.125,1.35525271560688e-19,2.16840434497101e-19,-0.370648111902901
37.1875,1.62630325872826e-19,2.16840434497101e-19,-0.445885077045556
37.25,1.62630325872826e-19,0,-0.510142885639501
37.3125,1.62630325872826e-19,0,-0.561839308745332
37.375,1.0842021724855e-19,2.16840434497101e-19,-0.599701416232005
37.4375,5.42101086242752e-20,4.33680868994202e-19,-0.622796919552912
37.5,1.62630325872826e-19,4.33680868994202e-19,-0.630557127608407
37.5625,1.62630325872826e-19,2.16840434497101e-19,-0.622790950446918
37.625,1.0842021724855e-19,2.16840434497101e-19,-0.599689605866163
37.6875,5.42101086242752e-20,2.16840434497101e-19,-0.561821912799866
37.75,0,0,-0.510120287095804
37.8125,5.42101086242752e-20,2.16840434497101e-19,-0.445857784209508
37.875,2.71050543121376e-20,0,-0.370616753820256
37.9375,8.13151629364128e-20,2.16840434497101e-19,-0.286249877987255
38,2.71050543121376e-20,5.42101086242752e-20,-0.194834552105066
38.0625,6.7762635780344e-21,2.71050543121376e-20,-0.0986217319510926
38.125,-3.30872245021211e-24,-6.61744490042422e-24,1.94935088600714e-05
38.1875,-2.03287907341032e-20,-5.42101086242752e-20,0.0986602385572048
38.25,-2.71050543121376e-20,0,0.194871629712072
38.3125,-5.42101086242752e-20,-1.0842021724855e-19,0.286284614298676
38.375,-8.13151629364128e-20,-2.16840434497101e-19,0.370648295674247
38.4375,-1.62630325872826e-19,-2.16840434497101e-19,0.445885358516386
38.5,-1.0842021724855e-19,-2.16840434497101e-19,0.510143219324026
38.5625,-1.0842021724855e-19,-2.16840434497101e-19,0.561839642639655
38.625,-1.62630325872826e-19,-2.16840434497101e-19,0.599701699869963
38.6875,-1.62630325872826e-19,-4.33680868994202e-19,0.622797111586402
38.75,-1.62630325872826e-19,-2.16840434497101e-19,0.630557201780926
38.8125,-1.62630325872826e-19,-2.16840434497101e-19,0.622790899106125
38.875,-5.42101086242752e-20,-2.16840434497101e-19,0.599689440558863
38.9375,-1.0842021724855e-19,-2.16840434497101e-19,0.561821661947598
39,-1.0842021724855e-19,-2.16840434497101e-19,0.510119991190348
39.0625,-1.0842021724855e-19,-2.16840434497101e-19,0.44585748932931
39.125,-8.13151629364128e-20,-1.0842021724855e-19,0.370616504498146
39.1875,-5.42101086242752e-20,0,0.286249710527155
39.25,-5.42101086242752e-20,-5.42101086242752e-20,0.194834489343841
39.3125,-2.03287907341032e-20,-5.42101086242752e-20,0.0986217802138125
39.375,6.61744490042422e-24,6.61744490042422e-24,-1.93448665821232e-05
39.4375,6.7762635780344e-21,2.71050543121376e-20,-0.0986600150283729
39.5,4.06575814682064e-20,5.42101086242752e-20,-0.194871367337535
39.5625,5.42101086242752e-20,0,-0.28628435390214
39.625,1.0842021724855e-19,2.16840434497101e-19,-0.370648076548461
39.6875,1.0842021724855e-19,0,-0.445885212531266
39.75,1.62630325872826e-19,2.16840434497101e-19,-0.510143166334221
39.8125,1.62630325872826e-19,0,-0.561839687846708
39.875,2.16840434497101e-19,4.33680868994202e-19,-0.599701833478406
39.9375,1.62630325872826e-19,0,-0.622797310736754
40,2.16840434497101e-19,2.16840434497101e-19,-0.630557434398538
40.0625,2.16840434497101e-19,0,-0.622791129026615
40.125,1.62630325872826e-19,2.16840434497101e-19,-0.599689633116857
40.1875,1.62630325872826e-19,2.16840434497101e-19,-0.561821789170348
40.25,5.42101086242752e-20,0,-0.510120035823099
40.3125,1.0842021724855e-19,0,-0.445857447119409
40.375,1.0842021724855e-19,3.25260651745651e-19,-0.370616384445463
40.4375,2.71050543121376e-20,1.0842021724855e-19,-0.286249533123967
40.5,5.42101086242752e-20,5.42101086242752e-20,-0.194834283130981
40.5625,2.03287907341032e-20,2.71050543121376e-20,-0.0986215772246791
40.625,-3.30872245021211e-24,-6.61744490042422e-24,1.95140525035591e-05
40.6875,-2.71050543121376e-20,2.71050543121376e-20,0.0986601258630126
40.75,-5.42101086242752e-20,0,0.194871404831982
40.8125,-2.71050543121376e-20,1.0842021724855e-19,0.286284314603437
40.875,-1.0842021724855e-19,-2.16840434497101e-19,0.370647968713224
40.9375,-1.0842021724855e-19,0,0.445885054524489
41,-5.42101086242752e-20,0,0.510142983548823
41.0625,-1.62630325872826e-19,-4.33680868994202e-19,0.561839508653989
41.125,-1.0842021724855e-19,-2.16840434497101e-19,0.599701684850457
41.1875,-1.62630325872826e-19,0,0.622797214212555
41.25,-2.16840434497101e-19,0,0.630557402992852
41.3125,-1.62630325872826e-19,-4.33680868994202e-19,0.622791165520387
41.375,-5.42101086242752e-20,-2.16840434497101e-19,0.599689729945793
41.4375,-5.42101086242752e-20,-2.16840434497101e-19,0.561821929880264
41.5,-1.0842021724855e-19,-2.16840434497101e-19,0.510120197824889
41.5625,-1.62630325872826e-19,0,0.445857605287965
41.625,-1.0842021724855e-19,-2.16840434497101e-19,0.370616514993247
41.6875,-8.13151629364128e-20,-1.0842021724855e-19,0.286249617155474
41.75,-2.71050543121376e-20,0,0.194834309350792
41.8125,-2.03287907341032e-20,-5.42101086242752e-20,0.0986215434150472
41.875,4.96308367531817e-24,6.61744490042422e-24,-1.96009703864544e-05
41.9375,2.71050543121376e-20,2.71050543121376e-20,-0.0986602511509511
42,4.06575814682064e-20,5.42101086242752e-20,-0.194871548397835
42.0625,8.13151629364128e-20,3.25260651745651e-19,-0.286284454199145
42.125,1.0842021724855e-19,2.16840434497101e-19,-0.370648083362222
42.1875,1.0842021724855e-19,2.16840434497101e-19,-0.445885127653276
42.25,1.62630325872826e-19,4.33680868994202e-19,-0.510143005358889
42.3125,1.0842021724855e-19,4.33680868994202e-19,-0.56183947739806
42.375,1.62630325872826e-19,2.16840434497101e-19,-0.599701606853587
42.4375,1.62630325872826e-19,2.16840434497101e-19,-0.622797102672639
42.5,1.62630325872826e-19,2.16840434497101e-19,-0.630557275778697
42.5625,1.0842021724855e-19,0,-0.62279104233028
42.625,1.62630325872826e-19,2.16840434497101e-19,-0.599689629275408
42.6875,1.0842021724855e-19,0,-0.561821866263792
42.75,1.62630325872826e-19,2.16840434497101e-19,-0.510120179758122
42.8125,1.0842021724855e-19,2.16840434497101e-19,-0.445857634126564
42.875,5.42101086242752e-20,2.16840434497101e-19,-0.370616584963378
42.9375,5.42101086242752e-20,1.0842021724855e-19,-0.286249716441577
43,5.42101086242752e-20,5.42101086242752e-20,-0.194834422063503
43.0625,2.71050543121376e-20,5.42101086242752e-20,-0.0986216521154638
43.125,-3.30872245021211e-24,0,1.95125885831232e-05
43.1875,-3.3881317890172e-20,-5.42101086242752e-20,0.0986601958312473
43.25,-6.7762635780344e-20,-5.42101086242752e-20,0.194871533502633
43.3125,-5.42101086242752e-20,0,0.286284480759462
43.375,-1.0842021724855e-19,-2.16840434497101e-19,0.370648146113049
43.4375,-1.62630325872826e-19,-2.16840434497101e-19,0.44588521601919
43.5,-1.0842021724855e-19,0,0.510143105212523
43.5625,-5.42101086242752e-20,-2.16840434497101e-19,0.561839573302314
43.625,-2.16840434497101e-19,-4.33680868994202e-19,0.599701684434112
43.6875,-2.16840434497101e-19,-2.16840434497101e-19,0.622797150758083
43.75,-1.62630325872826e-19,-2.16840434497101e-19,0.630557287992283
43.8125,-1.0842021724855e-19,-2.16840434497101e-19,0.622791017908823
43.875,-1.62630325872826e-19,-2.16840434497101e-19,0.599689573015248
43.9375,-1.62630325872826e-19,-2.16840434497101e-19,0.561821787628108
44,-1.0842021724855e-19,0,0.510120091306017
44.0625,-1.0842021724855e-19,-2.16840434497101e-19,0.445857549521639
44.125,-8.13151629364128e-20,-1.0842021724855e-19,0.370616516875424
44.1875,-8.13151629364128e-20,-2.16840434497101e-19,0.286249674661962
44.25,-5.42101086242752e-20,0,0.194834412112233
44.3125,-2.71050543121376e-20,-2.71050543121376e-20,0.0986216745357607
44.375,4.96308367531817e-24,6.61744490042422e-24,-1.9462161903945e-05
44.4375,2.03287907341032e-20,5.42101086242752e-20,-0.0986601258640869
44.5,4.06575814682064e-20,1.0842021724855e-19,-0.194871455158578
44.5625,5.42101086242752e-20,2.16840434497101e-19,-0.286284406131065
44.625,8.13151629364128e-20,2.16840434497101e-19,-0.370648086366388
44.6875,1.0842021724855e-19,0,-0.44588517973437
44.75,1.0842021724855e-19,2.16840434497101e-19,-0.510143097165008
44.8125,1.62630325872826e-19,0,-0.561839593856113
44.875,1.62630325872826e-19,2.16840434497101e-19,-0.599701729619856
44.9375,5.42101086242752e-20,2.16840434497101e-19,-0.622797213003697
45,1.62630325872826e-19,2.16840434497101e-19,-0.63055735737603
45.0625,2.16840434497101e-19,2.16840434497101e-19,-0.622791083729653
45.125,1.62630325872826e-19,2.16840434497101e-19,-0.599689625433499
45.1875,2.16840434497101e-19,2.16840434497101e-19,-0.561821819126556
45.25,1.0842021724855e-19,2.16840434497101e-19,-0.510120097755793
45.3125,1.0842021724855e-19,2.16840434497101e-19,-0.445857530704011
45.375,5.42101086242752e-20,1.0842021724855e-19,-0.37061647639675
45.4375,1.0842021724855e-19,0,-0.286249619293293
45.5,4.06575814682064e-20,5.42101086242752e-20,-0.194834350670507
45.5625,2.71050543121376e-20,2.71050543121376e-20,-0.098621616489688
45.625,-4.96308367531817e-24,-1.32348898008484e-23,1.95081425691628e-05
45.6875,-1.35525271560688e-20,0,0.0986601531946756
45.75,-4.06575814682064e-20,0,0.194871460271589
45.8125,-8.13151629364128e-20,-1.0842021724855e-19,0.286284388924334
45.875,-1.35525271560688e-19,-1.0842021724855e-19,0.370648050113824
45.9375,-1.0842021724855e-19,-2.16840434497101e-19,0.445885130489496
46,-1.0842021724855e-19,0,0.510143042762044
46.0625,-1.62630325872826e-19,-2.16840434497101e-19,0.561839542672369
46.125,-1.0842021724855e-19,-2.16840434497101e-19,0.599701689293357
46.1875,-1.0842021724855e-19,-2.16840434497101e-19,0.622797189301093
46.25,-2.16840434497101e-19,-2.16840434497101e-19,0.630557353377689
46.3125,-1.62630325872826e-19,-4.33680868994202e-19,0.622791099445158
46.375,-2.16840434497101e-19,-2.16840434497101e-19,0.599689657892885
46.4375,-2.16840434497101e-19,-2.16840434497101e-19,0.561821862919096
46.5,-5.42101086242752e-20,0,0.51012014592128
46.5625,-5.42101086242752e-20,-2.16840434497101e-19,0.445857575831463
46.625,-1.0842021724855e-19,-1.0842021724855e-19,0.370616511757965
46.6875,-5.42101086242752e-20,-1.0842021724855e-19,0.286249639839022
46.75,-6.7762635780344e-20,-5.42101086242752e-20,0.194834353742947
46.8125,-2.03287907341032e-20,-2.71050543121376e-20,0.0986216021518241
46.875,4.96308367531817e-24,1.32348898008484e-23,-1.95371984950362e-05
46.9375,2.71050543121376e-20,8.13151629364128e-20,-0.0986601921334185
47,6.7762635780344e-20,1.0842021724855e-19,-0.194871502910247
47.0625,8.13151629364128e-20,3.25260651745651e-19,-0.286284428707448
47.125,8.13151629364128e-20,2.16840434497101e-19,-0.370648081115383
47.1875,1.0842021724855e-19,0,-0.445885148289395
47.25,0,2.16840434497101e-19,-0.510143045068711
47.3125,1.62630325872826e-19,4.33680868994202e-19,-0.561839529604763
47.375,2.16840434497101e-19,2.16840434497101e-19,-0.599701663290315
47.4375,1.0842021724855e-19,2.16840434497101e-19,-0.622797154682719
47.5,1.0842021724855e-19,2.16840434497101e-19,-0.630557315635693
47.5625,1.0842021724855e-19,0,-0.622791064377569
47.625,2.16840434497101e-19,0,-0.599689630718593
47.6875,1.0842021724855e-19,0,-0.561821847506592
47.75,5.42101086242752e-20,0,-0.510120144244825
47.8125,1.62630325872826e-19,2.16840434497101e-19,-0.445857587729844
47.875,8.13151629364128e-20,2.16840434497101e-19,-0.370616535023409
47.9375,8.13151629364128e-20,2.16840434497101e-19,-0.286249670612433
48,5.42101086242752e-20,1.0842021724855e-19,-0.194834387147115
48.0625,2.03287907341032e-20,5.42101086242752e-20,-0.0986216330591781
48.125,-3.30872245021211e-24,0,1.95133835532984e-05
48.1875,-2.03287907341032e-20,0,0.0986601787958042
48.25,-6.7762635780344e-20,-5.42101086242752e-20,0.194871501749387
48.3125,-8.13151629364128e-20,-1.0842021724855e-19,0.286284439531381
48.375,-8.13151629364128e-20,-1.0842021724855e-19,0.370648101926613
48.4375,0,0,0.445885175641359
48.5,-1.0842021724855e-19,-2.16840434497101e-19,0.510143074630491
48.5625,-1.0842021724855e-19,-4.33680868994202e-19,0.561839556842131
48.625,-1.0842021724855e-19,0,0.599701684157167
48.6875,-1.62630325872826e-19,-2.16840434497101e-19,0.622797166217811
48.75,-2.16840434497101e-19,-4.33680868994202e-19,0.630557316377407
48.8125,-2.16840434497101e-19,-2.16840434497101e-19,0.622791054539557
48.875,-5.42101086242752e-20,0,0.599689612106913
48.9375,-1.62630325872826e-19,-2.16840434497101e-19,0.561821823198713
49,-5.42101086242752e-20,0,0.510120118086217
49.0625,-1.0842021724855e-19,-2.16840434497101e-19,0.44585756372955
49.125,-5.42101086242752e-20,0,0.370616516743343
49.1875,-1.0842021724855e-19,0,0.286249660642551
49.25,-4.06575814682064e-20,0,0.194834386743289
49.3125,-2.71050543121376e-20,-2.71050543121376e-20,0.0986216419937725
49.375,4.96308367531817e-24,6.61744490042422e-24,-1.94967426112372e-05
49.4375,2.71050543121376e-20,0,-0.0986601571959718
49.5,2.71050543121376e-20,1.0842021724855e-19,-0.194871478604628
49.5625,5.42101086242752e-20,1.0842021724855e-19,-0.286284418386032
49.625,8.13151629364128e-20,2.16840434497101e-19,-0.370648085915919
49.6875,1.0842021724855e-19,0,-0.445885167030005
49.75,1.62630325872826e-19,2.16840434497101e-19,-0.510143074496554
49.8125,1.62630325872826e-19,2.16840434497101e-19,-0.561839564950018
49.875,1.62630325872826e-19,2.16840434497101e-19,-0.599701699032813
49.9375,1.62630325872826e-19,2.16840434497101e-19,-0.622797185408909
50,2.16840434497101e-19,2.16840434497101e-19,-0.630557336853455
50.0625,1.0842021724855e-19,2.16840434497101e-19,-0.622791073167334
50.125,1.0842021724855e-19,2.16840434497101e-19,-0.599689626127059
50.1875,5.42101086242752e-20,0,-0.56182183063151
50.25,1.62630325872826e-19,2.16840434497101e-19,-0.510120118007184
50.3125,1.0842021724855e-19,2.16840434497101e-19,-0.44585755637732
50.375,1.0842021724855e-19,1.0842021724855e-19,-0.37061650344851
50.4375,8.13151629364128e-20,1.0842021724855e-19,-0.286249643593703
50.5,5.42101086242752e-20,1.62630325872826e-19,-0.194834368630172
50.5625,1.35525271560688e-20,5.42101086242752e-20,-0.0986216255858673
50.625,-3.30872245021211e-24,-6.61744490042422e-24,1.95090171167145e-05
50.6875,-2.71050543121376e-20,0,0.0986601636068574
50.75,-4.06575814682064e-20,-1.62630325872826e-19,0.194871478359962
50.8125,-8.13151629364128e-20,-2.16840434497101e-19,0.286284411723679
50.875,-8.13151629364128e-20,-1.0842021724855e-19,0.370648074036411
50.9375,-1.0842021724855e-19,-2.16840434497101e-19,0.445885151886099
51,-1.0842021724855e-19,-2.16840434497101e-19,0.510143058475372
51.0625,-1.62630325872826e-19,0,0.561839550499231
51.125,-1.0842021724855e-19,-2.16840434497101e-19,0.599701688288924
51.1875,-1.62630325872826e-19,-4.33680868994202e-19,0.62279717988371
51.25,-1.0842021724855e-19,0,0.630557337224445
51.3125,-1.62630325872826e-19,-2.16840434497101e-19,0.622791079200503
51.375,-2.16840434497101e-19,-4.33680868994202e-19,0.599689636739768
51.4375,-1.62630325872826e-19,0,0.561821844081694
51.5,-2.16840434497101e-19,-2.16840434497101e-19,0.510120132176528
51.5625,-5.42101086242752e-20,-2.16840434497101e-19,0.445857569102807
51.625,-8.13151629364128e-20,-1.0842021724855e-19,0.370616512850588
51.6875,-2.71050543121376e-20,-1.0842021724855e-19,0.286249648351749
51.75,-2.71050543121376e-20,-1.0842021724855e-19,0.194834368165296
51.8125,-1.35525271560688e-20,2.71050543121376e-20,0.0986216201259184
51.875,4.96308367531817e-24,6.61744490042422e-24,-1.95184961824116e-05
51.9375,3.3881317890172e-20,5.42101086242752e-20,-0.0986601755512875
52,5.42101086242752e-20,5.42101086242752e-20,-0.194871490890231
52.0625,8.13151629364128e-20,1.0842021724855e-19,-0.286284422928441
52.125,5.42101086242752e-20,1.0842021724855e-19,-0.37064808226241
52.1875,0,0,-0.445885155980018
52.25,1.0842021724855e-19,2.16840434497101e-19,-0.510143057943214
52.3125,1.62630325872826e-19,2.16840434497101e-19,-0.561839545561083
52.375,1.62630325872826e-19,2.16840434497101e-19,-0.599701679824011
52.4375,1.62630325872826e-19,2.16840434497101e-19,-0.622797169277712
52.5,1.62630325872826e-19,2.16840434497101e-19,-0.630557326144823
52.5625,2.16840434497101e-19,0,-0.62279106933596
52.625,2.16840434497101e-19,2.16840434497101e-19,-0.599689629544411
52.6875,1.62630325872826e-19,2.16840434497101e-19,-0.561821840562358
52.75,5.42101086242752e-20,0,-0.510120132754159
52.8125,1.0842021724855e-19,2.16840434497101e-19,-0.445857573566451
52.875,8.13151629364128e-20,1.0842021724855e-19,-0.370616520408392
52.9375,5.42101086242752e-20,1.0842021724855e-19,-0.286249657768142
53,5.42101086242752e-20,1.0842021724855e-19,-0.194834377961195
53.0625,4.06575814682064e-20,5.42101086242752e-20,-0.0986216288094092
53.125,-3.30872245021211e-24,0,1.95122038182781e-05
53.1875,-2.71050543121376e-20,-2.71050543121376e-20,0.0986601725288004
53.25,-1.35525271560688e-20,-1.0842021724855e-19,0.194871491495742
53.3125,-8.13151629364128e-20,-1.0842021724855e-19,0.286284426960916
53.375,-5.42101086242752e-20,-1.0842021724855e-19,0.370648089009023
53.4375,-1.0842021724855e-19,-4.33680868994202e-19,0.445885164339287
53.5,-1.62630325872826e-19,-4.33680868994202e-19,0.51014306660319
53.5625,-1.0842021724855e-19,-2.16840434497101e-19,0.561839553203925
53.625,-5.42101086242752e-20,-4.33680868994202e-19,0.599701685325392
53.6875,-2.16840434497101e-19,-4.33680868994202e-19,0.622797171870874
53.75,-1.62630325872826e-19,-2.16840434497101e-19,0.630557325525644
53.8125,-2.16840434497101e-19,-2.16840434497101e-19,0.622791065694954
53.875,-2.16840434497101e-19,-4.33680868994202e-19,0.599689623523039
53.9375,-1.0842021724855e-19,-2.16840434497101e-19,0.561821833142423
54,-1.0842021724855e-19,-2.16840434497101e-19,0.51012012509921
54.0625,-1.0842021724855e-19,0,0.445857566840458
54.125,-1.35525271560688e-19,0,0.370616515599732
54.1875,-8.13151629364128e-20,-1.0842021724855e-19,0.286249655545718
54.25,-5.42101086242752e-20,-1.0842021724855e-19,0.194834378582804
54.3125,-2.03287907341032e-20,2.71050543121376e-20,0.0986216320952653
54.375,4.96308367531817e-24,6.61744490042422e-24,-1.95068307098004e-05
54.4375,1.35525271560688e-20,0,-0.0986601659433767
54.5,4.06575814682064e-20,5.42101086242752e-20,-0.194871484729876
54.5625,2.71050543121376e-20,0,-0.286284421042528
54.625,1.62630325872826e-19,2.16840434497101e-19,-0.37064808480695
54.6875,1.62630325872826e-19,4.33680868994202e-19,-0.445885162436787
54.75,5.42101086242752e-20,0,-0.510143067218345
54.8125,2.16840434497101e-19,4.33680868994202e-19,-0.56183955616781
54.875,1.62630325872826e-19,0,-0.5997016901192
54.9375,2.71050543121376e-19,2.16840434497101e-19,-0.62279717771492
55,1.62630325872826e-19,2.16840434497101e-19,-0.630557331505041
55.0625,2.16840434497101e-19,0,-0.622791070901986
55.125,1.62630325872826e-19,2.16840434497101e-19,-0.599689627194099
55.1875,1.62630325872826e-19,2.16840434497101e-19,-0.56182183476908
55.25,1.62630325872826e-19,2.16840434497101e-19,-0.510120124497317
55.3125,1.0842021724855e-19,0,-0.445857564168256
55.375,8.13151629364128e-20,1.0842021724855e-19,-0.370616511323537
55.4375,8.13151629364128e-20,1.0842021724855e-19,-0.286249650360167
55.5,5.42101086242752e-20,5.42101086242752e-20,-0.194834373298977
55.5625,2.03287907341032e-20,2.71050543121376e-20,-0.0986216275146886
55.625,-6.61744490042422e-24,0,1.95100370062902e-05
55.6875,-2.03287907341032e-20,0,0.0986601673323518
55.75,-5.42101086242752e-20,-5.42101086242752e-20,0.194871484146452
55.8125,-8.13151629364128e-20,-1.0842021724855e-19,0.286284418634429
55.875,-1.62630325872826e-19,-1.0842021724855e-19,0.370648080993105
55.9375,-5.42101086242752e-20,0,0.445885157836043
56,-5.42101086242752e-20,-2.16840434497101e-19,0.510143062549725
56.0625,-1.62630325872826e-19,-2.16840434497101e-19,0.56183955213889
56.125,-2.16840434497101e-19,-2.16840434497101e-19,0.599701687319578
56.1875,-1.62630325872826e-19,-2.16840434497101e-19,0.622797176530563
56.25,-1.62630325872826e-19,-2.16840434497101e-19,0.6305573320662
56.3125,-2.16840434497101e-19,-2.16840434497101e-19,0.622791073071171
56.375,-2.16840434497101e-19,2.16840434497101e-19,0.599689630594955
56.4375,-1.0842021724855e-19,0,0.561821838850509
56.5,-1.62630325872826e-19,-2.16840434497101e-19,0.510120128621947
56.5625,-1.62630325872826e-19,-2.16840434497101e-19,0.445857567711453
56.625,-1.0842021724855e-19,-2.16840434497101e-19,0.370616513767389
56.6875,-5.42101086242752e-20,-1.0842021724855e-19,0.2862496513685
56.75,-8.13151629364128e-20,-1.0842021724855e-19,0.194834372762776
56.8125,-2.71050543121376e-20,-5.42101086242752e-20,0.0986216255615748
56.875,0,6.61744490042422e-24,-1.95130691109429e-05
56.9375,2.71050543121376e-20,5.42101086242752e-20,-0.0986601709526755
57,2.71050543121376e-20,5.42101086242752e-20,-0.194871487790056
57.0625,2.71050543121376e-20,0,-0.286284421750025
57.125,2.71050543121376e-20,0,-0.370648083125779
57.1875,1.0842021724855e-19,2.16840434497101e-19,-0.445885158693145
57.25,1.62630325872826e-19,0,-0.51014306204024
57.3125,5.42101086242752e-20,4.33680868994202e-19,-0.561839550381036
57.375,1.62630325872826e-19,0,-0.59970168461669
57.4375,1.62630325872826e-19,4.33680868994202e-19,-0.622797173319642
57.5,2.16840434497101e-19,2.16840434497101e-19,-0.630557328847824
57.5625,1.62630325872826e-19,4.33680868994202e-19,-0.62279107033194
57.625,1.0842021724855e-19,4.33680868994202e-19,-0.599689628734386
57.6875,1.0842021724855e-19,0,-0.561821838123252
57.75,1.0842021724855e-19,0,-0.510120129103712
57.8125,1.62630325872826e-19,0,-0.445857569292925
57.875,8.13151629364128e-20,1.0842021724855e-19,-0.370616516176435
57.9375,5.42101086242752e-20,1.0842021724855e-19,-0.286249654216025
58,5.42101086242752e-20,1.0842021724855e-19,-0.194834375605226
58.0625,2.71050543121376e-20,0,-0.0986216279695705
58.125,-3.30872245021211e-24,-1.32348898008484e-23,1.95114464390409e-05
58.1875,-2.03287907341032e-20,-5.42101086242752e-20,0.0986601703367786
58.25,-2.71050543121376e-20,0,0.19487148824365
58.3125,-2.71050543121376e-20,-1.0842021724855e-19,0.286284423172297
58.375,-8.13151629364128e-20,-1.0842021724855e-19,0.370648085272563
58.4375,-5.42101086242752e-20,-2.16840434497101e-19,0.44588516121809
58.5,-1.0842021724855e-19,-2.16840434497101e-19,0.510143064550396
58.5625,-1.0842021724855e-19,-2.16840434497101e-19,0.561839552497491
58.625,-1.0842021724855e-19,-2.16840434497101e-19,0.599701686031473
58.6875,-1.62630325872826e-19,0,0.622797173840124
58.75,-2.71050543121376e-19,-4.33680868994202e-19,0.630557328422332
58.8125,-2.16840434497101e-19,-4.33680868994202e-19,0.62279106905333
58.875,-1.0842021724855e-19,0,0.599689626821633
58.9375,-1.62630325872826e-19,-2.16840434497101e-19,0.561821835884548
59,-1.62630325872826e-19,-4.33680868994202e-19,0.510120126887225
59.0625,-5.42101086242752e-20,-2.16840434497101e-19,0.445857567432971
59.125,-8.13151629364128e-20,-1.0842021724855e-19,0.370616514943313
59.1875,-1.0842021724855e-19,-1.0842021724855e-19,0.286249653777187
59.25,-8.13151629364128e-20,-1.0842021724855e-19,0.194834376002992
59.3125,-1.35525271560688e-20,-2.71050543121376e-20,0.0986216291186123
59.375,4.96308367531817e-24,6.61744490042422e-24,-1.95097424449893e-05
59.4375,2.03287907341032e-20,2.71050543121376e-20,-0.0986601683521147
59.5,5.42101086242752e-20,5.42101086242752e-20,-0.194871486286749
59.5625,8.13151629364128e-20,0,-0.286284421538014
59.625,1.35525271560688e-19,1.0842021724855e-19,-0.370648084198135
59.6875,1.0842021724855e-19,2.16840434497101e-19,-0.445885160849023
59.75,1.0842021724855e-19,2.16840434497101e-19,-0.51014306492117
59.8125,1.62630325872826e-19,2.16840434497101e-19,-0.561839553529759
59.875,5.42101086242752e-20,4.33680868994202e-19,-0.599701687549241
59.9375,2.16840434497101e-19,2.16840434497101e-19,-0.622797175599388
60,5.42101086242752e-20,0,-0.630557330149932
60.0625,1.0842021724855e-19,2.16840434497101e-19,-0.62279107048914
60.125,1.62630325872826e-19,4.33680868994202e-19,-0.599689627757453
60.1875,1.62630325872826e-19,2.16840434497101e-19,-0.561821836194067
60.25,1.62630325872826e-19,0,-0.51012012654259
60.3125,1.0842021724855e-19,2.16840434497101e-19,-0.445857566505944
60.375,5.42101086242752e-20,2.16840434497101e-19,-0.370616513591582
60.4375,2.71050543121376e-20,1.0842021724855e-19,-0.28624965221791
60.5,5.42101086242752e-20,5.42101086242752e-20,-0.194834374478025
60.5625,2.71050543121376e-20,5.42101086242752e-20,-0.0986216278573933
60.625,-1.65436122510606e-24,-6.61744490042422e-24,1.95105572692899e-05
60.6875,-1.35525271560688e-20,-5.42101086242752e-20,0.0986601686108984
60.75,-2.71050543121376e-20,-1.0842021724855e-19,0.194871485967116
60.8125,-5.42101086242752e-20,-1.0842021724855e-19,0.286284420705753
60.875,-8.13151629364128e-20,0,0.370648082994494
60.9375,-1.0842021724855e-19,0,0.445885159467124
61,-1.0842021724855e-19,0,0.510143063575188
61.0625,-1.62630325872826e-19,-2.16840434497101e-19,0.561839552422056
61.125,-2.71050543121376e-19,-2.16840434497101e-19,0.599701686840028
61.1875,-2.16840434497101e-19,-2.16840434497101e-19,0.62279717538381
61.25,-2.16840434497101e-19,0,0.63055733044567
61.3125,-1.0842021724855e-19,-2.16840434497101e-19,0.622791071236073
61.375,-1.0842021724855e-19,-2.16840434497101e-19,0.599689628829086
61.4375,-1.0842021724855e-19,-4.33680868994202e-19,0.561821837418643
61.5,-1.62630325872826e-19,-6.50521303491303e-19,0.510120127730409
61.5625,-1.0842021724855e-19,0,0.445857567478635
61.625,-8.13151629364128e-20,-1.0842021724855e-19,0.370616514208649
61.6875,-8.13151629364128e-20,-2.16840434497101e-19,0.286249652396806
61.75,-5.42101086242752e-20,-5.42101086242752e-20,0.194834374204947
61.8125,-1.35525271560688e-20,-2.71050543121376e-20,0.0986216271872254
61.875,3.30872245021211e-24,6.61744490042422e-24,-1.9511511194179e-05
61.9375,2.03287907341032e-20,5.42101086242752e-20,-0.098660169695921
62,5.42101086242752e-20,1.0842021724855e-19,-0.194871487015289
62.0625,5.42101086242752e-20,1.0842021724855e-19,-0.286284421559754
62.125,1.0842021724855e-19,3.25260651745651e-19,-0.370648083531184
62.1875,1.62630325872826e-19,0,-0.445885159614912
62.25,1.62630325872826e-19,0,-0.510143063323496
62.3125,1.62630325872826e-19,2.16840434497101e-19,-0.561839551820983
62.375,1.0842021724855e-19,0,-0.599701685990953
62.4375,1.62630325872826e-19,4.33680868994202e-19,-0.622797174422522
62.5,1.0842021724855e-19,2.16840434497101e-19,-0.630557329520841
62.5625,1.0842021724855e-19,0,-0.622791070486364
62.625,1.62630325872826e-19,4.33680868994202e-19,-0.599689628362513
62.6875,1.62630325872826e-19,4.33680868994202e-19,-0.561821837297161
62.75,1.62630325872826e-19,2.16840434497101e-19,-0.510120127961988
62.8125,5.42101086242752e-20,0,-0.445857568017607
62.875,8.13151629364128e-20,0,-0.370616514964285
62.9375,5.42101086242752e-20,1.0842021724855e-19,-0.286249653248349
63,4.06575814682064e-20,5.42101086242752e-20,-0.194834375020832
63.0625,2.03287907341032e-20,2.71050543121376e-20,-0.0986216278452537
63.125,-4.96308367531817e-24,0,1.95111057419075e-05
63.1875,-2.03287907341032e-20,-2.71050543121376e-20,0.0986601695966776
63.25,-4.06575814682064e-20,-5.42101086242752e-20,0.19487148722804
63.3125,-8.13151629364128e-20,-1.0842021724855e-19,0.286284422042899
63.375,-8.13151629364128e-20,-1.0842021724855e-19,0.370648084203552
63.4375,-1.0842021724855e-19,-2.16840434497101e-19,0.445885160369195
63.5,-1.0842021724855e-19,0,0.510143064043245
63.5625,-1.62630325872826e-19,-2.16840434497101e-19,0.561839552398441
63.625,-1.0842021724855e-19,-4.33680868994202e-19,0.599701686343148
63.6875,-5.42101086242752e-20,-2.16840434497101e-19,0.622797174503039
63.75,-1.0842021724855e-19,-2.16840434497101e-19,0.630557329325709
63.8125,-1.0842021724855e-19,-2.16840434497101e-19,0.622791070053387
63.875,-1.62630325872826e-19,-2.16840434497101e-19,0.59968962776432
63.9375,-1.0842021724855e-19,-2.16840434497101e-19,0.561821836629123
64,-1.0842021724855e-19,0,0.510120127327174
64.0625,-1.0842021724855e-19,-2.16840434497101e-19,0.445857567510973
64.125,-5.42101086242752e-20,-1.0842021724855e-19,0.370616514658471
64.1875,-1.0842021724855e-19,-1.0842021724855e-19,0.286249653183571
64.25,-5.42101086242752e-20,-5.42101086242752e-20,0.194834375199632
64.3125,-1.35525271560688e-20,-2.71050543121376e-20,0.0986216282331659
64.375,3.30872245021211e-24,6.61744490042422e-24,-1.95105736241249e-05
64.4375,3.3881317890172e-20,5.42101086242752e-20,-0.098660169005054
64.5,5.42101086242752e-20,0,-0.194871486668179
64.5625,5.42101086242752e-20,0,-0.286284421598435
64.625,1.0842021724855e-19,2.16840434497101e-19,-0.370648083938167
64.6875,1.62630325872826e-19,0,-0.445885160317605
64.75,1.0842021724855e-19,0,-0.510143064206764
64.8125,1.0842021724855e-19,2.16840434497101e-19,-0.561839552745886
64.875,1.0842021724855e-19,2.16840434497101e-19,-0.599701686816461
64.9375,1.62630325872826e-19,4.33680868994202e-19,-0.622797175026891
65,2.16840434497101e-19,4.33680868994202e-19,-0.630557329819403
65.0625,5.42101086242752e-20,2.16840434497101e-19,-0.622791070443225
65.125,1.0842021724855e-19,2.16840434497101e-19,-0.599689627994521
65.1875,1.62630325872826e-19,4.33680868994202e-19,-0.56182183666972
65.25,1.62630325872826e-19,2.16840434497101e-19,-0.510120127177733
65.3125,1.0842021724855e-19,2.16840434497101e-19,-0.445857567199837
65.375,8.13151629364128e-20,1.0842021724855e-19,-0.370616514237539
65.4375,5.42101086242752e-20,0,-0.286249652719762
65.5,4.06575814682064e-20,0,-0.194834374764299
65.5625,2.03287907341032e-20,2.71050543121376e-20,-0.0986216278912815
65.625,-4.96308367531817e-24,-1.32348898008484e-23,1.95107731985969e-05
65.6875,-3.3881317890172e-20,-5.42101086242752e-20,0.0986601690364888
65.75,-5.42101086242752e-20,-5.42101086242752e-20,0.194871486531784
65.8125,-8.13151629364128e-20,-1.0842021724855e-19,0.286284421319913
65.875,-1.0842021724855e-19,-1.0842021724855e-19,0.370648083563841
65.9375,-1.62630325872826e-19,-2.16840434497101e-19,0.445885159906991
66,-1.0842021724855e-19,-4.33680868994202e-19,0.510143063822997
66.0625,-1.62630325872826e-19,-2.16840434497101e-19,0.561839552446137
66.125,-2.16840434497101e-19,-4.33680868994202e-19,0.599701686643518
66.1875,-1.0842021724855e-19,0,0.622797175003044
66.25,-1.0842021724855e-19,-2.16840434497101e-19,0.630557329943763
66.3125,-1.62630325872826e-19,-2.16840434497101e-19,0.622791070692523
66.375,-1.62630325872826e-19,0,0.599689628327305
66.4375,-2.16840434497101e-19,-2.16840434497101e-19,0.561821837033204
66.5,-1.62630325872826e-19,-2.16840434497101e-19,0.510120127516037
66.5625,-1.0842021724855e-19,-2.16840434497101e-19,0.445857567462598
66.625,-1.0842021724855e-19,-1.0842021724855e-19,0.370616514387331
66.6875,-8.13151629364128e-20,-1.0842021724855e-19,0.286249652737334
66.75,-5.42101086242752e-20,-5.42101086242752e-20,0.194834374651033
66.8125,-2.03287907341032e-20,-5.42101086242752e-20,0.098621627668216
66.875,0,6.61744490042422e-24,-1.95110690418982e-05
66.9375,2.03287907341032e-20,2.71050543121376e-20,-0.0986601693582237
67,5.42101086242752e-20,5.42101086242752e-20,-0.194871486829985
67.0625,1.0842021724855e-19,1.0842021724855e-19,-0.286284421550202
67.125,1.0842021724855e-19,1.0842021724855e-19,-0.3706480836935
67.1875,1.62630325872826e-19,2.16840434497101e-19,-0.445885159919448
67.25,1.0842021724855e-19,2.16840434497101e-19,-0.510143063719924
67.3125,1.62630325872826e-19,0,-0.561839552246576
67.375,1.62630325872826e-19,0,-0.599701686380548
67.4375,1.62630325872826e-19,4.33680868994202e-19,-0.622797174718323
67.5,1.62630325872826e-19,2.16840434497101e-19,-0.630557329680975
67.5625,1.62630325872826e-19,0,-0.622791070490716
67.625,1.62630325872826e-19,2.16840434497101e-19,-0.599689628215145
67.6875,1.62630325872826e-19,2.16840434497101e-19,-0.561821837024929
67.75,1.0842021724855e-19,2.16840434497101e-19,-0.510120127609766
67.8125,1.62630325872826e-19,2.16840434497101e-19,-0.445857567641069
67.875,1.35525271560688e-19,2.16840434497101e-19,-0.370616514621068
67.9375,8.13151629364128e-20,0,-0.286249652989292
68,5.42101086242752e-20,1.0842021724855e-19,-0.194834374882598
68.0625,2.71050543121376e-20,2.71050543121376e-20,-0.0986216278450436
68.125,-6.61744490042422e-24,-6.61744490042422e-24,1.95109720975927e-05
68.1875,-1.35525271560688e-20,0,0.0986601693533267
68.25,-4.06575814682064e-20,0,0.194871486915076
68.3125,-8.13151629364128e-20,-1.0842021724855e-19,0.286284421709798
68.375,-5.42101086242752e-20,-2.16840434497101e-19,0.3706480839012
68.4375,-1.0842021724855e-19,0,0.44588516014236
68.5,-1.0842021724855e-19,-2.16840434497101e-19,0.510143063923948
68.5625,-1.0842021724855e-19,0,0.561839552401437
68.625,-5.42101086242752e-20,0,0.599701686464324
68.6875,-1.62630325872826e-19,-2.16840434497101e-19,0.622797174720502
68.75,-1.62630325872826e-19,0,0.630557329603685
68.8125,-1.0842021724855e-19,-2.16840434497101e-19,0.622791070348041
68.875,-1.62630325872826e-19,-2.16840434497101e-19,0.599689628030616
68.9375,-2.16840434497101e-19,-4.33680868994202e-19,0.561821836827686
69,-1.62630325872826e-19,-2.16840434497101e-19,0.510120127430034
69.0625,-1.62630325872826e-19,-2.16840434497101e-19,0.445857567505452
69.125,-1.0842021724855e-19,-1.0842021724855e-19,0.370616514548731
69.1875,-1.0842021724855e-19,-1.0842021724855e-19,0.286249652989272
69.25,-5.42101086242752e-20,-1.0842021724855e-19,0.194834374952686
69.3125,-2.03287907341032e-20,-2.71050543121376e-20,0.0986216279725645
69.375,1.65436122510606e-24,6.61744490042422e-24,-1.95108081501416e-05
69.4375,2.71050543121376e-20,5.42101086242752e-20,-0.0986601691788472
69.5,2.71050543121376e-20,0,-0.194871486756781
69.5625,8.13151629364128e-20,2.16840434497101e-19,-0.286284421591076
69.625,8.13151629364128e-20,2.16840434497101e-19,-0.370648083838793
69.6875,1.0842021724855e-19,2.16840434497101e-19,-0.44588516014403
69.75,1.0842021724855e-19,0,-0.5101430639875
69.8125,1.0842021724855e-19,4.33680868994202e-19,-0.56183955251541
69.875,1.62630325872826e-19,2.16840434497101e-19,-0.599701686609946
69.9375,1.62630325872826e-19,0,-0.622797174874834
70,5.42101086242752e-20,0,-0.630557329743132
70.0625,2.16840434497101e-19,4.33680868994202e-19,-0.622791070451985
70.125,1.62630325872826e-19,0,-0.599689628084402
70.1875,1.0842021724855e-19,2.16840434497101e-19,-0.561821836824721
70.25,1.62630325872826e-19,4.33680868994202e-19,-0.510120127372475
70.3125,1.62630325872826e-19,4.33680868994202e-19,-0.445857567403633
70.375,1.0842021724855e-19,2.16840434497101e-19,-0.370616514419366
70.4375,5.42101086242752e-20,2.16840434497101e-19,-0.286249652852799
70.5,6.7762635780344e-20,5.42101086242752e-20,-0.194834374829891
70.5625,1.35525271560688e-20,2.71050543121376e-20,-0.0986216278816035
70.625,-4.96308367531817e-24,-6.61744490042422e-24,1.95108544856372e-05
70.6875,-2.03287907341032e-20,-5.42101086242752e-20,0.0986601691749239
70.75,-6.7762635780344e-20,-5.42101086242752e-20,0.19487148670466
70.8125,-1.0842021724855e-19,0,0.286284421500118
70.875,-8.13151629364128e-20,-2.16840434497101e-19,0.370648083723917
70.9375,-1.0842021724855e-19,0,0.44588516002333
71,-2.16840434497101e-19,-4.33680868994202e-19,0.510143063879375
71.0625,-2.16840434497101e-19,-4.33680868994202e-19,0.561839552435811
71.125,-1.62630325872826e-19,-2.16840434497101e-19,0.59970168657006
71.1875,-1.0842021724855e-19,-2.16840434497101e-19,0.622797174879484
71.25,-1.0842021724855e-19,-2.16840434497101e-19,0.630557329790275
71.3125,-1.62630325872826e-19,-2.16840434497101e-19,0.622791070533213
71.375,-1.62630325872826e-19,-2.16840434497101e-19,0.599689628186415
71.4375,-1.62630325872826e-19,0,0.56182183693147
71.5,-1.62630325872826e-19,-2.16840434497101e-19,0.510120127467665
71.5625,-1.0842021724855e-19,-2.16840434497101e-19,0.445857567473251
71.625,-1.35525271560688e-19,-1.0842021724855e-19,0.370616514453674
71.6875,-8.13151629364128e-20,-1.0842021724855e-19,0.286249652847654
71.75,-2.71050543121376e-20,0,0.19483437478727
71.8125,-2.03287907341032e-20,-5.42101086242752e-20,0.098621627809052
71.875,4.96308367531817e-24,6.61744490042422e-24,-1.95109450291777e-05
71.9375,2.03287907341032e-20,8.13151629364128e-20,-0.0986601692692998
72,5.42101086242752e-20,5.42101086242752e-20,-0.194871486788471
72.0625,8.13151629364128e-20,1.0842021724855e-19,-0.28628442156099
72.125,1.0842021724855e-19,2.16840434497101e-19,-0.370648083753404
72.1875,5.42101086242752e-20,0,-0.445885160017861
72.25,1.62630325872826e-19,2.16840434497101e-19,-0.510143063840824
72.3125,5.42101086242752e-20,0,-0.561839552371059
72.375,2.16840434497101e-19,4.33680868994202e-19,-0.599701686489659
72.4375,1.0842021724855e-19,2.16840434497101e-19,-0.622797174796042
72.5,1.62630325872826e-19,2.16840434497101e-19,-0.630557329716502
72.5625,5.42101086242752e-20,0,-0.622791070479966
72.625,1.62630325872826e-19,4.33680868994202e-19,-0.59968962816112
72.6875,1.62630325872826e-19,2.16840434497101e-19,-0.561821836937095
72.75,1.62630325872826e-19,2.16840434497101e-19,-0.510120127502454
72.8125,5.42101086242752e-20,2.16840434497101e-19,-0.445857567531051
72.875,8.13151629364128e-20,1.0842021724855e-19,-0.370616514525053
72.9375,8.13151629364128e-20,1.0842021724855e-19,-0.286249652921394
73,6.7762635780344e-20,0,-0.194834374852221
73.0625,2.71050543121376e-20,2.71050543121376e-20,-0.0986216278556079
73.125,-4.96308367531817e-24,-6.61744490042422e-24,1.95109233452749e-05
73.1875,-1.35525271560688e-20,-2.71050543121376e-20,0.0986601692749945
73.25,-4.06575814682064e-20,0,0.19487148681989
73.3125,-8.13151629364128e-20,0,0.286284421612572
73.375,-1.0842021724855e-19,-1.0842021724855e-19,0.37064808381675
73.4375,-1.0842021724855e-19,-2.16840434497101e-19,0.445885160083061
73.5,-1.0842021724855e-19,-2.16840434497101e-19,0.510143063897982
73.5625,-2.16840434497101e-19,0,0.56183955241175
73.625,-2.16840434497101e-19,-2.16840434497101e-19,0.599701686508233
73.6875,-1.62630325872826e-19,0,0.622797174790371
73.75,-1.62630325872826e-19,-2.16840434497101e-19,0.630557329688174
73.8125,-1.0842021724855e-19,-2.16840434497101e-19,0.622791070433941
73.875,-2.16840434497101e-19,-4.33680868994202e-19,0.599689628104907
73.9375,-5.42101086242752e-20,-2.16840434497101e-19,0.561821836879477
74,-1.62630325872826e-19,0,0.510120127452184
74.0625,-1.0842021724855e-19,-2.16840434497101e-19,0.44585756749553
74.125,-1.0842021724855e-19,-1.0842021724855e-19,0.370616514509145
74.1875,-5.42101086242752e-20,-1.0842021724855e-19,0.286249652926973
74.25,-4.06575814682064e-20,-1.0842021724855e-19,0.194834374877778
74.3125,-2.03287907341032e-20,-2.71050543121376e-20,0.0986216278966642
74.375,3.30872245021211e-24,0,-1.95108734756756e-05
74.4375,2.03287907341032e-20,2.71050543121376e-20,-0.0986601692240471
74.5,4.06575814682064e-20,5.42101086242752e-20,-0.194871486775658
74.5625,8.13151629364128e-20,1.0842021724855e-19,-0.286284421581524
74.625,8.13151629364128e-20,1.0842021724855e-19,-0.370648083803174
74.6875,5.42101086242752e-20,0,-0.445885160088495
74.75,5.42101086242752e-20,2.16840434497101e-19,-0.510143063921002
74.8125,1.62630325872826e-19,2.16840434497101e-19,-0.561839552448362
74.875,1.0842021724855e-19,2.16840434497101e-19,-0.599701686552494
74.9375,2.16840434497101e-19,4.33680868994202e-19,-0.622797174835364
75,1.62630325872826e-19,2.16840434497101e-19,-0.63055732972707
75.0625,1.62630325872826e-19,2.16840434497101e-19,-0.622791070461053
75.125,2.71050543121376e-19,4.33680868994202e-19,-0.599689628116486
75.1875,5.42101086242752e-20,2.16840434497101e-19,-0.561821836874247
75.25,1.0842021724855e-19,2.16840434497101e-19,-0.510120127431426
75.3125,1.62630325872826e-19,2.16840434497101e-19,-0.445857567462872
75.375,1.0842021724855e-19,1.0842021724855e-19,-0.370616514469886
75.4375,2.71050543121376e-20,0,-0.286249652887227
75.5,2.71050543121376e-20,5.42101086242752e-20,-0.194834374843535
75.5625,2.03287907341032e-20,0,-0.0986216278729757
75.625,-6.61744490042422e-24,0,1.95108833320718e-05
75.6875,-2.71050543121376e-20,-2.71050543121376e-20,0.0986601692190388
75.75,-5.42101086242752e-20,-5.42101086242752e-20,0.194871486756977
75.8125,-1.0842021724855e-19,-2.16840434497101e-19,0.286284421552428
75.875,-5.42101086242752e-20,-1.0842021724855e-19,0.370648083768321
75.9375,-1.0842021724855e-19,0,0.445885160053379
76,-5.42101086242752e-20,-2.16840434497101e-19,0.510143063890924
76.0625,-1.0842021724855e-19,-2.16840434497101e-19,0.561839552427704
76.125,-2.16840434497101e-19,-2.16840434497101e-19,0.599701686544119
76.1875,-2.16840434497101e-19,-4.33680868994202e-19,0.622797174840144
76.25,-5.42101086242752e-20,0,0.630557329743895
76.3125,-2.16840434497101e-19,0,0.622791070487009
76.375,-1.62630325872826e-19,-2.16840434497101e-19,0.599689628147372
76.4375,-1.62630325872826e-19,-2.16840434497101e-19,0.561821836905272
76.5,-1.0842021724855e-19,-2.16840434497101e-19,0.51012012745787
76.5625,-1.0842021724855e-19,-2.16840434497101e-19,0.445857567480879
76.625,-1.0842021724855e-19,-1.0842021724855e-19,0.370616514476993
76.6875,-2.71050543121376e-20,-1.0842021724855e-19,0.286249652882674
76.75,-5.42101086242752e-20,-5.42101086242752e-20,0.194834374828401
76.8125,-2.03287907341032e-20,-5.42101086242752e-20,0.0986216278498434
76.875,3.30872245021211e-24,1.32348898008484e-23,-1.95109107311416e-05
76.9375,2.03287907341032e-20,2.71050543121376e-20,-0.0986601692464484
77,4.06575814682064e-20,1.0842021724855e-19,-0.194871486780193
77.0625,2.71050543121376e-20,1.0842021724855e-19,-0.286284421568126
77.125,8.13151629364128e-20,1.0842021724855e-19,-0.370648083774346
77.1875,1.0842021724855e-19,2.16840434497101e-19,-0.445885160049097
77.25,1.62630325872826e-19,0,-0.510143063877314
77.3125,2.16840434497101e-19,2.16840434497101e-19,-0.561839552407083
77.375,1.62630325872826e-19,2.16840434497101e-19,-0.599701686519818
77.4375,2.16840434497101e-19,4.33680868994202e-19,-0.622797174815953
77.5,1.0842021724855e-19,2.16840434497101e-19,-0.630557329723465
77.5625,0,0,-0.622791070473314
77.625,1.62630325872826e-19,6.50521303491303e-19,-0.599689628142283
77.6875,1.0842021724855e-19,4.33680868994202e-19,-0.561821836909292
77.75,1.0842021724855e-19,0,-0.510120127470123
77.8125,1.0842021724855e-19,2.16840434497101e-19,-0.445857567499246
77.875,1.0842021724855e-19,1.0842021724855e-19,-0.370616514498564
77.9375,5.42101086242752e-20,0,-0.286249652904039
78,2.71050543121376e-20,1.0842021724855e-19,-0.194834374846356
78.0625,1.35525271560688e-20,2.71050543121376e-20,-0.0986216278618092
78.125,-4.96308367531817e-24,-6.61744490042422e-24,1.9510906455424e-05
78.1875,-1.35525271560688e-20,-2.71050543121376e-20,0.0986601692502087
78.25,-4.06575814682064e-20,-5.42101086242752e-20,0.194871486791195
78.3125,-8.13151629364128e-20,-1.0842021724855e-19,0.2862844215845
78.375,-8.13151629364128e-20,-1.0842021724855e-19,0.370648083793464
78.4375,-1.0842021724855e-19,-2.16840434497101e-19,0.44588516006794
78.5,-1.62630325872826e-19,-4.33680868994202e-19,0.510143063893086
78.5625,-2.16840434497101e-19,-2.16840434497101e-19,0.561839552417479
78.625,-5.42101086242752e-20,0,0.599701686523429
78.6875,-5.42101086242752e-20,-2.16840434497101e-19,0.622797174812439
78.75,-1.62630325872826e-19,-4.33680868994202e-19,0.630557329713569
78.8125,-1.0842021724855e-19,-2.16840434497101e-19,0.622791070458723
78.875,-2.16840434497101e-19,0,0.599689628125348
78.9375,-1.62630325872826e-19,-2.16840434497101e-19,0.561821836892634
79,-1.62630325872826e-19,-2.16840434497101e-19,0.510120127456253
79.0625,-1.0842021724855e-19,-4.33680868994202e-19,0.445857567490197
79.125,-5.42101086242752e-20,-1.0842021724855e-19,0.370616514495534
79.1875,-5.42101086242752e-20,-1.0842021724855e-19,0.286249652907317
79.25,-4.06575814682064e-20,-5.42101086242752e-20,0.194834374855231
79.3125,-3.3881317890172e-20,-2.71050543121376e-20,0.0986216278747976
79.375,6.61744490042422e-24,1.32348898008484e-23,-1.9510891441394e-05
79.4375,3.3881317890172e-20,5.42101086242752e-20,-0.0986601692355128
79.5,5.42101086242752e-20,0,-0.19487148677906
79.5625,8.13151629364128e-20,1.0842021724855e-19,-0.286284421576639
79.625,8.13151629364128e-20,1.0842021724855e-19,-0.370648083790933
79.6875,1.0842021724855e-19,0,-0.445885160070986
79.75,1.0842021724855e-19,0,-0.510143063901071
79.8125,2.16840434497101e-19,4.33680868994202e-19,-0.561839552429062
79.875,2.16840434497101e-19,2.16840434497101e-19,-0.599701686536727
79.9375,1.0842021724855e-19,2.16840434497101e-19,-0.62279717482541
80,2.16840434497101e-19,2.16840434497101e-19,-0.630557329724257
80.0625,2.71050543121376e-19,2.16840434497101e-19,-0.622791070465587
80.125,1.62630325872826e-19,2.16840434497101e-19,-0.599689628127449
80.1875,2.16840434497101e-19,2.16840434497101e-19,-0.561821836889814
80.25,1.0842021724855e-19,2.16840434497101e-19,-0.510120127449115
80.3125,1.0842021724855e-19,2.16840434497101e-19,-0.445857567479888
80.375,5.42101086242752e-20,1.0842021724855e-19,-0.370616514483723
80.4375,2.71050543121376e-20,1.0842021724855e-19,-0.286249652895889
80.5,6.7762635780344e-20,1.0842021724855e-19,-0.194834374845846
80.5625,3.3881317890172e-20,2.71050543121376e-20,-0.0986216278688302
80.625,-1.65436122510606e-24,-1.32348898008484e-23,1.95108931889313e-05
80.6875,-6.7762635780344e-21,-2.71050543121376e-20,0.098660169232923
80.75,-2.71050543121376e-20,-5.42101086242752e-20,0.194871486772613
80.8125,-8.13151629364128e-20,-1.0842021724855e-19,0.286284421567452
80.875,-5.42101086242752e-20,-1.0842021724855e-19,0.370648083780476
80.9375,-1.62630325872826e-19,-2.16840434497101e-19,0.44588516006089
81,-1.62630325872826e-19,-2.16840434497101e-19,0.510143063892808
81.0625,-1.62630325872826e-19,-2.16840434497101e-19,0.561839552423865
81.125,-2.16840434497101e-19,-4.33680868994202e-19,0.59970168653528
81.1875,-1.62630325872826e-19,-2.16840434497101e-19,0.622797174827815
81.25,-1.0842021724855e-19,-2.16840434497101e-19,0.630557329730034
81.3125,-1.0842021724855e-19,-2.16840434497101e-19,0.622791070473772
81.375,-5.42101086242752e-20,-2.16840434497101e-19,0.599689628136736
81.4375,-1.0842021724855e-19,0,0.561821836898749
81.5,-1.0842021724855e-19,-2.16840434497101e-19,0.510120127456353
81.5625,-1.0842021724855e-19,0,0.445857567484412
81.625,-5.42101086242752e-20,-2.16840434497101e-19,0.370616514484904
81.6875,-5.42101086242752e-20,0,0.286249652893685
81.75,-6.7762635780344e-20,-1.0842021724855e-19,0.19483437484067
81.8125,-2.71050543121376e-20,-5.42101086242752e-20,0.0986216278615141
81.875,4.96308367531817e-24,1.32348898008484e-23,-1.95109014433687e-05
81.9375,2.03287907341032e-20,2.71050543121376e-20,-0.0986601692408555
82,4.06575814682064e-20,0,-0.194871486779055
82.0625,5.42101086242752e-20,1.0842021724855e-19,-0.28628442157137
82.125,8.13151629364128e-20,1.0842021724855e-19,-0.370648083781451
82.1875,1.62630325872826e-19,2.16840434497101e-19,-0.445885160058844
82.25,5.42101086242752e-20,4.33680868994202e-19,-0.510143063888139
82.3125,1.62630325872826e-19,2.16840434497101e-19,-0.561839552417347
82.375,1.62630325872826e-19,2.16840434497101e-19,-0.599701686527966
82.4375,1.0842021724855e-19,2.16840434497101e-19,-0.622797174820811
82.5,5.42101086242752e-20,2.16840434497101e-19,-0.630557329724412
82.5625,1.62630325872826e-19,2.16840434497101e-19,-0.622791070470317
82.625,1.0842021724855e-19,4.33680868994202e-19,-0.599689628135934
82.6875,1.0842021724855e-19,0,-0.561821836900624
82.75,1.0842021724855e-19,0,-0.510120127460527
82.8125,5.42101086242752e-20,0,-0.445857567490215
82.875,1.0842021724855e-19,1.0842021724855e-19,-0.370616514491394
82.9375,8.13151629364128e-20,1.0842021724855e-19,-0.286249652899798
83,5.42101086242752e-20,1.0842021724855e-19,-0.194834374845619
83.0625,1.35525271560688e-20,5.42101086242752e-20,-0.0986216278645217
83.125,-3.30872245021211e-24,-6.61744490042422e-24,1.95109007724907e-05
83.1875,-1.35525271560688e-20,-2.71050543121376e-20,0.0986601692424761
83.25,-4.06575814682064e-20,-5.42101086242752e-20,0.194871486782726
83.3125,-1.0842021724855e-19,-1.0842021724855e-19,0.286284421576541
83.375,-1.0842021724855e-19,-2.16840434497101e-19,0.370648083787199
83.4375,-5.42101086242752e-20,-2.16840434497101e-19,0.445885160064311
83.5,-1.62630325872826e-19,-2.16840434497101e-19,0.510143063892527
83.5625,-1.62630325872826e-19,-4.33680868994202e-19,0.561839552419974
83.625,-1.0842021724855e-19,-4.33680868994202e-19,0.59970168652853
83.6875,-1.0842021724855e-19,-2.16840434497101e-19,0.622797174819295
83.75,-1.62630325872826e-19,-2.16840434497101e-19,0.630557329721089
83.8125,-1.0842021724855e-19,0,0.622791070465756
83.875,-1.0842021724855e-19,0,0.599689628130832
83.9375,-2.16840434497101e-19,-2.16840434497101e-19,0.561821836895803
84,-1.0842021724855e-19,-2.16840434497101e-19,0.510120127456694
84.0625,-1.0842021724855e-19,-2.16840434497101e-19,0.445857567487895
84.125,-5.42101086242752e-20,-1.0842021724855e-19,0.370616514490972
84.1875,-5.42101086242752e-20,-1.0842021724855e-19,0.286249652901227
84.25,-4.06575814682064e-20,0,0.194834374848561
84.3125,-2.71050543121376e-20,-2.71050543121376e-20,0.0986216278686299
84.375,4.96308367531817e-24,1.32348898008484e-23,-1.95108962231549e-05
84.4375,2.03287907341032e-20,2.71050543121376e-20,-0.0986601692382606
84.5,2.71050543121376e-20,0,-0.194871486779369
84.5625,8.13151629364128e-20,0,-0.286284421574547
84.625,8.13151629364128e-20,2.16840434497101e-19,-0.370648083786863
84.6875,5.42101086242752e-20,2.16840434497101e-19,-0.445885160065553
84.75,1.0842021724855e-19,0,-0.510143063895167
84.8125,2.16840434497101e-19,6.50521303491303e-19,-0.5618395524236
84.875,1.0842021724855e-19,2.16840434497101e-19,-0.599701686532497
84.9375,2.16840434497101e-19,2.16840434497101e-19,-0.622797174823034
85,1.0842021724855e-19,0,-0.630557329724034
85.0625,5.42101086242752e-20,2.16840434497101e-19,-0.622791070467489
85.125,2.16840434497101e-19,0,-0.599689628131119
85.1875,1.62630325872826e-19,2.16840434497101e-19,-0.561821836894627
85.25,1.0842021724855e-19,2.16840434497101e-19,-0.510120127454349
85.3125,1.0842021724855e-19,0,-0.445857567484713
85.375,8.13151629364128e-20,1.0842021724855e-19,-0.370616514487415
85.4375,5.42101086242752e-20,1.0842021724855e-19,-0.286249652897976
85.5,4.06575814682064e-20,1.0842021724855e-19,-0.194834374846023
85.5625,2.71050543121376e-20,5.42101086242752e-20,-0.0986216278671011
85.625,-4.96308367531817e-24,0,1.95108964704811e-05
85.6875,-3.3881317890172e-20,-5.42101086242752e-20,0.0986601692371995
85.75,-5.42101086242752e-20,-5.42101086242752e-20,0.194871486777261
85.8125,-5.42101086242752e-20,-1.0842021724855e-19,0.286284421571722
85.875,-8.13151629364128e-20,-1.0842021724855e-19,0.370648083783709
85.9375,-1.0842021724855e-19,-2.16840434497101e-19,0.445885160062673
86,-1.0842021724855e-19,-2.16840434497101e-19,0.510143063892879
86.0625,-1.0842021724855e-19,-4.33680868994202e-19,0.561839552422293
86.125,-1.0842021724855e-19,-2.16840434497101e-19,0.599701686532359
86.1875,-1.62630325872826e-19,-2.16840434497101e-19,0.622797174824008
86.25,-1.0842021724855e-19,-2.16840434497101e-19,0.630557329725945
86.3125,-1.0842021724855e-19,0,0.622791070470013
86.375,-1.0842021724855e-19,-4.33680868994202e-19,0.599689628133863
86.4375,-1.0842021724855e-19,2.16840434497101e-19,0.561821836897204
86.5,-1.0842021724855e-19,-2.16840434497101e-19,0.510120127456288
86.5625,-5.42101086242752e-20,0,0.445857567485798
86.625,-8.13151629364128e-20,-1.0842021724855e-19,0.370616514487556
86.6875,-8.13151629364128e-20,-1.0842021724855e-19,0.286249652897048
86.75,-6.7762635780344e-20,-5.42101086242752e-20,0.194834374844276
86.8125,-2.03287907341032e-20,-5.42101086242752e-20,0.0986216278648439
86.875,6.61744490042422e-24,0,-1.95108989157263e-05
86.9375,2.03287907341032e-20,2.71050543121376e-20,-0.0986601692394901
87,4.06575814682064e-20,5.42101086242752e-20,-0.194871486778955
87.0625,5.42101086242752e-20,2.16840434497101e-19,-0.286284421572653
87.125,1.0842021724855e-19,0,-0.37064808378381
87.1875,1.62630325872826e-19,0,-0.445885160061839
87.25,5.42101086242752e-20,2.16840434497101e-19,-0.51014306389137
87.3125,1.0842021724855e-19,2.16840434497101e-19,-0.5618395524203
87.375,1.62630325872826e-19,4.33680868994202e-19,-0.599701686530192
87.4375,1.0842021724855e-19,2.16840434497101e-19,-0.622797174822017
87.5,2.71050543121376e-19,4.33680868994202e-19,-0.630557329724425
87.5625,1.62630325872826e-19,4.33680868994202e-19,-0.622791070469188
87.625,1.62630325872826e-19,2.16840434497101e-19,-0.599689628133835
87.6875,1.0842021724855e-19,2.16840434497101e-19,-0.561821836897918
87.75,1.62630325872826e-19,2.16840434497101e-19,-0.510120127457688
87.8125,1.62630325872826e-19,2.16840434497101e-19,-0.445857567487619
87.875,8.13151629364128e-20,2.16840434497101e-19,-0.370616514489448
87.9375,8.13151629364128e-20,2.16840434497101e-19,-0.286249652898804
88,4.06575814682064e-20,5.42101086242752e-20,-0.194834374845608
88.0625,2.03287907341032e-20,5.42101086242752e-20,-0.0986216278655288
88.125,-3.30872245021211e-24,-6.61744490042422e-24,1.95108988579789e-05
88.1875,-4.06575814682064e-20,-2.71050543121376e-20,0.0986601692401174
88.25,-6.7762635780344e-20,-1.0842021724855e-19,0.194871486780219
88.3125,-8.13151629364128e-20,-2.16840434497101e-19,0.286284421574202
88.375,-8.13151629364128e-20,0,0.370648083785472
88.4375,-1.0842021724855e-19,-2.16840434497101e-19,0.445885160063408
88.5,-1.0842021724855e-19,0,0.510143063892539
88.5625,-1.0842021724855e-19,-2.16840434497101e-19,0.561839552420919
88.625,-1.62630325872826e-19,-4.33680868994202e-19,0.599701686530199
88.6875,-1.0842021724855e-19,-2.16840434497101e-19,0.622797174821407
88.75,-1.0842021724855e-19,-2.16840434497101e-19,0.630557329723328
88.8125,-1.62630325872826e-19,-2.16840434497101e-19,0.622791070467773
88.875,-1.62630325872826e-19,0,0.599689628132361
88.9375,-1.0842021724855e-19,-4.33680868994202e-19,0.561821836896583
89,-1.62630325872826e-19,-2.16840434497101e-19,0.510120127456652
89.0625,-5.42101086242752e-20,2.16840434497101e-19,0.445857567487102
89.125,-8.13151629364128e-20,-1.0842021724855e-19,0.370616514489464
89.1875,-8.13151629364128e-20,0,0.286249652899321
89.25,-5.42101086242752e-20,-5.42101086242752e-20,0.194834374846653
89.3125,-2.03287907341032e-20,-5.42101086242752e-20,0.0986216278668206
89.375,4.96308367531817e-24,6.61744490042422e-24,-1.9510897568899e-05
89.4375,2.71050543121376e-20,2.71050543121376e-20,-0.0986601692388668
89.5,5.42101086242752e-20,5.42101086242752e-20,-0.194871486779286
89.5625,2.71050543121376e-20,1.0842021724855e-19,-0.286284421573774
89.625,8.13151629364128e-20,1.0842021724855e-19,-0.370648083785528
89.6875,5.42101086242752e-20,2.16840434497101e-19,-0.445885160063905
89.75,1.62630325872826e-19,4.33680868994202e-19,-0.510143063893433
89.8125,2.16840434497101e-19,4.33680868994202e-19,-0.561839552422045
89.875,1.62630325872826e-19,4.33680868994202e-19,-0.599701686531358
89.9375,5.42101086242752e-20,0,-0.622797174822464
90,1.0842021724855e-19,2.16840434497101e-19,-0.630557329724107
90.0625,1.62630325872826e-19,2.16840434497101e-19,-0.622791070468177
90.125,2.71050543121376e-19,0,-0.599689628132304
90.1875,1.62630325872826e-19,0,-0.561821836896114
90.25,2.16840434497101e-19,2.16840434497101e-19,-0.510120127455867
90.3125,5.42101086242752e-20,0,-0.44585756748607
90.375,8.13151629364128e-20,2.16840434497101e-19,-0.370616514488397
90.4375,5.42101086242752e-20,1.0842021724855e-19,-0.286249652898429
90.5,5.42101086242752e-20,1.0842021724855e-19,-0.194834374845911
90.5625,2.71050543121376e-20,5.42101086242752e-20,-0.0986216278664426
90.625,-4.96308367531817e-24,0,1.95108974842295e-05
90.6875,-3.3881317890172e-20,-5.42101086242752e-20,0.098660169238508
90.75,-6.7762635780344e-20,-5.42101086242752e-20,0.194871486778622
90.8125,-1.0842021724855e-19,-1.0842021724855e-19,0.2862844215729
90.875,-5.42101086242752e-20,0,0.370648083784615
90.9375,-1.0842021724855e-19,-2.16840434497101e-19,0.445885160063116
91,-1.0842021724855e-19,-4.33680868994202e-19,0.510143063892816
91.0625,-1.62630325872826e-19,-2.16840434497101e-19,0.561839552421738
91.125,-2.16840434497101e-19,-2.16840434497101e-19,0.599701686531417
91.1875,-5.42101086242752e-20,-2.16840434497101e-19,0.622797174822828
91.25,-1.0842021724855e-19,-2.16840434497101e-19,0.630557329724729
91.3125,-2.16840434497101e-19,-4.33680868994202e-19,0.622791070468943
91.375,-1.0842021724855e-19,0,0.599689628133109
91.4375,-2.16840434497101e-19,0,0.561821836896828
91.5,-1.62630325872826e-19,-2.16840434497101e-19,0.510120127456363
91.5625,-5.42101086242752e-20,0,0.445857567486352
91.625,-1.35525271560688e-19,-2.16840434497101e-19,0.370616514488383
91.6875,-8.13151629364128e-20,-2.16840434497101e-19,0.286249652898066
91.75,-4.06575814682064e-20,-1.0842021724855e-19,0.1948343748454
91.8125,-2.71050543121376e-20,-5.42101086242752e-20,0.0986216278658006
91.875,4.96308367531817e-24,1.32348898008484e-23,-1.95108982300919e-05
91.9375,2.71050543121376e-20,2.71050543121376e-20,-0.0986601692391353
92,5.42101086242752e-20,0,-0.194871486779074
92.0625,8.13151629364128e-20,2.16840434497101e-19,-0.286284421573144
92.125,8.13151629364128e-20,1.0842021724855e-19,-0.37064808378453
92.1875,1.0842021724855e-19,0,-0.445885160062788
92.25,1.62630325872826e-19,2.16840434497101e-19,-0.510143063892343
92.3125,1.0842021724855e-19,4.33680868994202e-19,-0.561839552421111
92.375,1.62630325872826e-19,2.16840434497101e-19,-0.599701686530775
92.4375,5.42101086242752e-20,2.16840434497101e-19,-0.622797174822281
92.5,2.16840434497101e-19,2.16840434497101e-19,-0.630557329724335
92.5625,1.62630325872826e-19,2.16840434497101e-19,-0.622791070468763
92.625,1.0842021724855e-19,2.16840434497101e-19,-0.599689628133151
92.6875,1.62630325872826e-19,2.16840434497101e-19,-0.561821836897122
92.75,1.0842021724855e-19,2.16840434497101e-19,-0.510120127456827
92.8125,1.62630325872826e-19,2.16840434497101e-19,-0.445857567486864
92.875,5.42101086242752e-20,2.16840434497101e-19,-0.370616514488986
92.9375,1.35525271560688e-19,2.16840434497101e-19,-0.28624965289859
93,6.7762635780344e-20,1.62630325872826e-19,-0.194834374845708
93.0625,3.3881317890172e-20,5.42101086242752e-20,-0.0986216278659773
93.125,-4.96308367531817e-24,-6.61744490042422e-24,1.95108982800214e-05
93.1875,-2.03287907341032e-20,-2.71050543121376e-20,0.098660169239412
93.25,-2.71050543121376e-20,-5.42101086242752e-20,0.194871486779403
93.3125,-2.71050543121376e-20,-1.0842021724855e-19,0.286284421573585
93.375,-8.13151629364128e-20,0,0.370648083785048
93.4375,-1.0842021724855e-19,-2.16840434497101e-19,0.445885160063178
93.5,-1.62630325872826e-19,-2.16840434497101e-19,0.510143063892619
93.5625,-1.62630325872826e-19,-2.16840434497101e-19,0.561839552421259
93.625,-1.62630325872826e-19,-4.33680868994202e-19,0.599701686530737
93.6875,-2.16840434497101e-19,-2.16840434497101e-19,0.62279717482206
93.75,-1.62630325872826e-19,-2.16840434497101e-19,0.630557329723984
93.8125,-1.62630325872826e-19,-2.16840434497101e-19,0.62279107046833
93.875,-1.0842021724855e-19,0,0.599689628132732
93.9375,-1.0842021724855e-19,0,0.561821836896728
94,-2.16840434497101e-19,-2.16840434497101e-19,0.5101201274566
94.0625,-1.0842021724855e-19,-2.16840434497101e-19,0.445857567486785
94.125,-1.0842021724855e-19,-2.16840434497101e-19,0.370616514488993
94.1875,-8.13151629364128e-20,-1.0842021724855e-19,0.286249652898757
94.25,-2.71050543121376e-20,-5.42101086242752e-20,0.19483437484602
94.3125,-2.71050543121376e-20,-2.71050543121376e-20,0.0986216278662956
94.375,1.65436122510606e-24,6.61744490042422e-24,-1.951089793791e-05
94.4375,4.06575814682064e-20,2.71050543121376e-20,-0.098660169239049
94.5,2.71050543121376e-20,0,-0.19487148677924
94.5625,5.42101086242752e-20,2.16840434497101e-19,-0.286284421573527
94.625,5.42101086242752e-20,0,-0.370648083785066
94.6875,1.0842021724855e-19,2.16840434497101e-19,-0.44588516006339
94.75,1.62630325872826e-19,4.33680868994202e-19,-0.510143063892915
94.8125,1.0842021724855e-19,2.16840434497101e-19,-0.561839552421588
94.875,2.16840434497101e-19,2.16840434497101e-19,-0.599701686531071
94.9375,2.16840434497101e-19,2.16840434497101e-19,-0.622797174822349
95,1.62630325872826e-19,2.16840434497101e-19,-0.630557329724184
95.0625,1.0842021724855e-19,4.33680868994202e-19,-0.622791070468419
95.125,5.42101086242752e-20,0,-0.599689628132673
95.1875,2.16840434497101e-19,2.16840434497101e-19,-0.561821836896586
95.25,5.42101086242752e-20,2.16840434497101e-19,-0.510120127456324
95.3125,1.62630325872826e-19,2.16840434497101e-19,-0.445857567486464
95.375,8.13151629364128e-20,1.0842021724855e-19,-0.370616514488698
95.4375,8.13151629364128e-20,2.16840434497101e-19,-0.286249652898508
95.5,8.13151629364128e-20,1.0842021724855e-19,-0.19483437484582
95.5625,1.35525271560688e-20,2.71050543121376e-20,-0.0986216278662723
95.625,-3.30872245021211e-24,6.61744490042422e-24,1.95108978513127e-05
95.6875,-2.03287907341032e-20,-2.71050543121376e-20,0.098660169238937
95.75,-4.06575814682064e-20,-1.0842021724855e-19,0.194871486778974
95.8125,-2.71050543121376e-20,-1.0842021724855e-19,0.286284421573226
95.875,-8.13151629364128e-20,0,0.370648083784831
95.9375,-1.62630325872826e-19,-2.16840434497101e-19,0.445885160063168
96,-2.16840434497101e-19,-6.50521303491303e-19,0.510143063892766
96.0625,-1.0842021724855e-19,-2.16840434497101e-19,0.56183955242155
96.125,-1.62630325872826e-19,-2.16840434497101e-19,0.599701686531103
96.1875,-2.16840434497101e-19,-4.33680868994202e-19,0.622797174822479
96.25,-1.62630325872826e-19,-4.33680868994202e-19,0.63055732972438
96.3125,-1.0842021724855e-19,-2.16840434497101e-19,0.622791070468658
96.375,-5.42101086242752e-20,0,0.599689628132919
96.4375,-1.62630325872826e-19,-2.16840434497101e-19,0.561821836896765
96.5,-1.0842021724855e-19,0,0.51012012745645
96.5625,-5.42101086242752e-20,0,0.44585756748651
96.625,-1.0842021724855e-19,-1.0842021724855e-19,0.370616514488626
96.6875,-2.71050543121376e-20,0,0.286249652898423
96.75,-5.42101086242752e-20,-1.0842021724855e-19,0.194834374845676
96.8125,-2.71050543121376e-20,-5.42101086242752e-20,0.098621627866026
96.875,4.96308367531817e-24,6.61744490042422e-24,-1.95108979957236e-05
96.9375,2.03287907341032e-20,5.42101086242752e-20,-0.0986601692390618
97,2.71050543121376e-20,5.42101086242752e-20,-0.194871486779117
97.0625,5.42101086242752e-20,0,-0.286284421573241
97.125,1.0842021724855e-19,1.0842021724855e-19,-0.370648083784787
97.1875,1.0842021724855e-19,0,-0.44588516006308
97.25,1.0842021724855e-19,4.33680868994202e-19,-0.510143063892564
97.3125,5.42101086242752e-20,0,-0.561839552421343
97.375,5.42101086242752e-20,2.16840434497101e-19,-0.59970168653093
97.4375,1.0842021724855e-19,2.16840434497101e-19,-0.62279717482232
97.5,1.0842021724855e-19,2.16840434497101e-19,-0.630557329724284
97.5625,5.42101086242752e-20,2.16840434497101e-19,-0.622791070468626
97.625,1.0842021724855e-19,0,-0.599689628132947
97.6875,1.0842021724855e-19,0,-0.561821836896866
97.75,2.16840434497101e-19,2.16840434497101e-19,-0.510120127456576
97.8125,1.62630325872826e-19,2.16840434497101e-19,-0.445857567486651
97.875,2.71050543121376e-20,1.0842021724855e-19,-0.370616514488822
97.9375,1.0842021724855e-19,2.16840434497101e-19,-0.286249652898522
98,6.7762635780344e-20,1.0842021724855e-19,-0.194834374845728
98.0625,2.03287907341032e-20,2.71050543121376e-20,-0.0986216278660969
98.125,-6.61744490042422e-24,-6.61744490042422e-24,1.95108980840262e-05
98.1875,-2.71050543121376e-20,-2.71050543121376e-20,0.0986601692391885
98.25,-5.42101086242752e-20,-5.42101086242752e-20,0.194871486779251
98.3125,-8.13151629364128e-20,-1.0842021724855e-19,0.286284421573444
98.375,-1.35525271560688e-19,0,0.370648083784964
98.4375,-1.62630325872826e-19,-2.16840434497101e-19,0.445885160063175
98.5,-1.62630325872826e-19,-2.16840434497101e-19,0.510143063892682
98.5625,-1.62630325872826e-19,-4.33680868994202e-19,0.561839552421389
98.625,-1.62630325872826e-19,-2.16840434497101e-19,0.59970168653089
98.6875,-1.62630325872826e-19,-2.16840434497101e-19,0.622797174822251
98.75,-2.16840434497101e-19,-2.16840434497101e-19,0.630557329724171
98.8125,-3.25260651745651e-19,-4.33680868994202e-19,0.622791070468491
98.875,-1.62630325872826e-19,0,0.599689628132817
98.9375,-1.0842021724855e-19,-2.16840434497101e-19,0.561821836896737
99,-1.0842021724855e-19,-2.16840434497101e-19,0.510120127456527
99.0625,-1.0842021724855e-19,0,0.445857567486651
99.125,-5.42101086242752e-20,-1.0842021724855e-19,0.370616514488812
99.1875,-8.13151629364128e-20,-1.0842021724855e-19,0.286249652898628
99.25,-6.7762635780344e-20,-1.0842021724855e-19,0.19483437484587
99.3125,-1.35525271560688e-20,-2.71050543121376e-20,0.0986216278661796
99.375,3.30872245021211e-24,1.32348898008484e-23,-1.95108979667981e-05
99.4375,2.71050543121376e-20,2.71050543121376e-20,-0.0986601692390895
99.5,4.06575814682064e-20,5.42101086242752e-20,-0.194871486779216
99.5625,8.13151629364128e-20,1.0842021724855e-19,-0.286284421573383
99.625,1.0842021724855e-19,1.0842021724855e-19,-0.370648083784953
99.6875,1.0842021724855e-19,0,-0.445885160063261
99.75,1.0842021724855e-19,0,-0.510143063892749
99.8125,1.62630325872826e-19,4.33680868994202e-19,-0.561839552421472
99.875,5.42101086242752e-20,2.16840434497101e-19,-0.599701686531002
99.9375,2.16840434497101e-19,2.16840434497101e-19,-0.622797174822333
100,1.62630325872826e-19,2.16840434497101e-19,-0.630557329724223
100.0625,1.62630325872826e-19,2.16840434497101e-19,-0.622791070468501
100.125,2.16840434497101e-19,2.16840434497101e-19,-0.599689628132811
100.1875,1.62630325872826e-19,0,-0.561821836896706
100.25,2.16840434497101e-19,2.16840434497101e-19,-0.51012012745643
100.3125,1.0842021724855e-19,0,-0.445857567486598
100.375,1.35525271560688e-19,3.25260651745651e-19,-0.370616514488766
100.4375,1.0842021724855e-19,2.16840434497101e-19,-0.286249652898525
100.5,5.42101086242752e-20,5.42101086242752e-20,-0.194834374845816
100.5625,6.7762635780344e-21,5.42101086242752e-20,-0.098621627866161
100.625,-6.61744490042422e-24,0,1.95108979883501e-05
100.6875,-2.03287907341032e-20,-5.42101086242752e-20,0.0986601692390047
100.75,-4.06575814682064e-20,0,0.194871486779113
100.8125,-2.71050543121376e-20,-1.0842021724855e-19,0.286284421573336
100.875,-5.42101086242752e-20,-1.0842021724855e-19,0.370648083784826
100.9375,-1.0842021724855e-19,-2.16840434497101e-19,0.44588516006316
101,-1.62630325872826e-19,-2.16840434497101e-19,0.510143063892718
101.0625,-1.0842021724855e-19,-4.33680868994202e-19,0.56183955242144
101.125,-1.0842021724855e-19,-2.16840434497101e-19,0.59970168653101
101.1875,-5.42101086242752e-20,0,0.622797174822374
101.25,-1.0842021724855e-19,-2.16840434497101e-19,0.630557329724285
101.3125,-1.0842021724855e-19,0,0.622791070468582
101.375,-1.62630325872826e-19,-2.16840434497101e-19,0.599689628132872
101.4375,-1.62630325872826e-19,0,0.561821836896799
101.5,-1.62630325872826e-19,-2.16840434497101e-19,0.510120127456505
101.5625,-5.42101086242752e-20,0,0.445857567486593
101.625,-8.13151629364128e-20,0,0.370616514488729
101.6875,-8.13151629364128e-20,-1.0842021724855e-19,0.28624965289849
101.75,-5.42101086242752e-20,-5.42101086242752e-20,0.194834374845733
101.8125,-2.71050543121376e-20,-5.42101086242752e-20,0.0986216278660593
101.875,3.30872245021211e-24,6.61744490042422e-24,-1.95108980161787e-05
101.9375,3.3881317890172e-20,5.42101086242752e-20,-0.098660169239102
102,5.42101086242752e-20,0,-0.194871486779104
102.0625,5.42101086242752e-20,2.16840434497101e-19,-0.286284421573316
102.125,5.42101086242752e-20,0,-0.37064808378486
102.1875,1.62630325872826e-19,2.16840434497101e-19,-0.445885160063154
102.25,1.0842021724855e-19,4.33680868994202e-19,-0.510143063892672
102.3125,1.62630325872826e-19,4.33680868994202e-19,-0.56183955242141
102.375,5.42101086242752e-20,0,-0.599701686530963
102.4375,1.62630325872826e-19,2.16840434497101e-19,-0.622797174822321
102.5,2.16840434497101e-19,2.16840434497101e-19,-0.630557329724248
102.5625,1.62630325872826e-19,4.33680868994202e-19,-0.622791070468559
102.625,5.42101086242752e-20,0,-0.599689628132893
102.6875,1.62630325872826e-19,2.16840434497101e-19,-0.5618218368968
102.75,1.62630325872826e-19,2.16840434497101e-19,-0.510120127456522
102.8125,1.0842021724855e-19,2.16840434497101e-19,-0.445857567486638
102.875,5.42101086242752e-20,1.0842021724855e-19,-0.370616514488775
102.9375,8.13151629364128e-20,2.16840434497101e-19,-0.286249652898499
103,6.7762635780344e-20,5.42101086242752e-20,-0.194834374845802
103.0625,2.03287907341032e-20,2.71050543121376e-20,-0.0986216278661109
103.125,0,-6.61744490042422e-24,1.95108980598633e-05
103.1875,-2.71050543121376e-20,-5.42101086242752e-20,0.0986601692390855
103.25,-5.42101086242752e-20,-5.42101086242752e-20,0.194871486779191
103.3125,-5.42101086242752e-20,0,0.286284421573401
103.375,-8.13151629364128e-20,-1.0842021724855e-19,0.370648083784916
103.4375,-1.0842021724855e-19,-2.16840434497101e-19,0.445885160063207
103.5,-1.0842021724855e-19,-2.16840434497101e-19,0.510143063892728
103.5625,-1.62630325872826e-19,-2.16840434497101e-19,0.561839552421411
103.625,-1.62630325872826e-19,0,0.599701686530949
103.6875,-1.62630325872826e-19,-4.33680868994202e-19,0.622797174822305
103.75,-1.62630325872826e-19,-4.33680868994202e-19,0.630557329724215
103.8125,-1.0842021724855e-19,-4.33680868994202e-19,0.622791070468522
103.875,-1.62630325872826e-19,0,0.599689628132831
103.9375,-2.16840434497101e-19,-2.16840434497101e-19,0.561821836896754
104,-1.62630325872826e-19,0,0.510120127456488
104.0625,-1.0842021724855e-19,0,0.445857567486596
104.125,-1.0842021724855e-19,0,0.370616514488809
104.1875,-1.0842021724855e-19,-2.16840434497101e-19,0.286249652898553
104.25,-9.48676900924816e-20,-5.42101086242752e-20,0.194834374845797
104.3125,-2.03287907341032e-20,-5.42101086242752e-20,0.0986216278661933
104.375,4.96308367531817e-24,1.32348898008484e-23,-1.95108979748142e-05
104.4375,1.35525271560688e-20,2.71050543121376e-20,-0.0986601692390839
104.5,2.71050543121376e-20,0,-0.194871486779169
104.5625,5.42101086242752e-20,1.0842021724855e-19,-0.286284421573386
104.625,5.42101086242752e-20,1.0842021724855e-19,-0.370648083784944
104.6875,1.0842021724855e-19,2.16840434497101e-19,-0.44588516006319
104.75,5.42101086242752e-20,2.16840434497101e-19,-0.510143063892732
104.8125,1.62630325872826e-19,2.16840434497101e-19,-0.561839552421462
104.875,1.62630325872826e-19,2.16840434497101e-19,-0.599701686530969
104.9375,1.0842021724855e-19,0,-0.622797174822333
105,1.62630325872826e-19,4.33680868994202e-19,-0.630557329724237
105.0625,1.0842021724855e-19,2.16840434497101e-19,-0.622791070468538
105.125,1.62630325872826e-19,0,-0.599689628132831
105.1875,1.62630325872826e-19,2.16840434497101e-19,-0.56182183689672
105.25,1.0842021724855e-19,2.16840434497101e-19,-0.510120127456502
105.3125,5.42101086242752e-20,0,-0.445857567486592
105.375,1.0842021724855e-19,1.0842021724855e-19,-0.370616514488745
105.4375,8.13151629364128e-20,1.0842021724855e-19,-0.286249652898575
105.5,5.42101086242752e-20,5.42101086242752e-20,-0.194834374845819
105.5625,2.71050543121376e-20,5.42101086242752e-20,-0.0986216278661483
105.625,-6.61744490042422e-24,-6.61744490042422e-24,1.95108980059155e-05
105.6875,-4.06575814682064e-20,-5.42101086242752e-20,0.0986601692390672
105.75,-5.42101086242752e-20,-5.42101086242752e-20,0.19487148677917
105.8125,-5.42101086242752e-20,-1.0842021724855e-19,0.286284421573383
105.875,-8.13151629364128e-20,0,0.370648083784877
105.9375,-1.0842021724855e-19,-2.16840434497101e-19,0.445885160063189
106,-1.0842021724855e-19,-2.16840434497101e-19,0.51014306389273
106.0625,-2.16840434497101e-19,-4.33680868994202e-19,0.561839552421435
106.125,-2.16840434497101e-19,-2.16840434497101e-19,0.599701686530992
106.1875,-1.62630325872826e-19,0,0.622797174822356
106.25,-1.0842021724855e-19,-2.16840434497101e-19,0.630557329724265
106.3125,-1.0842021724855e-19,-2.16840434497101e-19,0.622791070468559
106.375,-1.62630325872826e-19,0,0.599689628132849
106.4375,-1.62630325872826e-19,0,0.561821836896768
106.5,-1.0842021724855e-19,0,0.510120127456479
106.5625,-1.62630325872826e-19,-2.16840434497101e-19,0.445857567486569
106.625,-1.0842021724855e-19,-1.0842021724855e-19,0.370616514488772
106.6875,-5.42101086242752e-20,-1.0842021724855e-19,0.28624965289851
106.75,-4.06575814682064e-20,-5.42101086242752e-20,0.194834374845756
106.8125,-2.71050543121376e-20,-5.42101086242752e-20,0.0986216278661155
106.875,4.96308367531817e-24,6.61744490042422e-24,-1.9510898037533e-05
106.9375,2.03287907341032e-20,2.71050543121376e-20,-0.0986601692391262
107,4.06575814682064e-20,1.0842021724855e-19,-0.194871486779145
107.0625,5.42101086242752e-20,0,-0.28628442157335
107.125,1.0842021724855e-19,1.0842021724855e-19,-0.370648083784898
107.1875,5.42101086242752e-20,0,-0.44588516006314
107.25,1.62630325872826e-19,4.33680868994202e-19,-0.510143063892685
107.3125,2.16840434497101e-19,4.33680868994202e-19,-0.561839552421424
107.375,1.62630325872826e-19,4.33680868994202e-19,-0.599701686530967
107.4375,2.16840434497101e-19,0,-0.622797174822333
107.5,1.0842021724855e-19,2.16840434497101e-19,-0.63055732972425
107.5625,2.16840434497101e-19,2.16840434497101e-19,-0.622791070468564
107.625,1.62630325872826e-19,2.16840434497101e-19,-0.59968962813287
107.6875,1.62630325872826e-19,0,-0.561821836896766
107.75,1.62630325872826e-19,2.16840434497101e-19,-0.510120127456528
107.8125,1.0842021724855e-19,0,-0.445857567486625
107.875,1.0842021724855e-19,1.0842021724855e-19,-0.370616514488765
107.9375,8.13151629364128e-20,2.16840434497101e-19,-0.286249652898529
108,4.06575814682064e-20,1.0842021724855e-19,-0.194834374845766
108.0625,2.03287907341032e-20,2.71050543121376e-20,-0.0986216278660889
108.125,-3.30872245021211e-24,-6.61744490042422e-24,1.9510898006882e-05
108.1875,-2.03287907341032e-20,-5.42101086242752e-20,0.0986601692391112
108.25,-5.42101086242752e-20,-5.42101086242752e-20,0.19487148677922
108.3125,-1.0842021724855e-19,-1.0842021724855e-19,0.286284421573364
108.375,-8.13151629364128e-20,-1.0842021724855e-19,0.370648083784916
108.4375,-1.0842021724855e-19,-2.16840434497101e-19,0.445885160063218
108.5,-2.16840434497101e-19,-4.33680868994202e-19,0.510143063892736
108.5625,-1.0842021724855e-19,-2.16840434497101e-19,0.56183955242146
108.625,-1.62630325872826e-19,0,0.599701686530995
108.6875,-1.62630325872826e-19,-2.16840434497101e-19,0.622797174822332
108.75,-5.42101086242752e-20,0,0.630557329724236
108.8125,-2.16840434497101e-19,-4.33680868994202e-19,0.622791070468526
108.875,-1.62630325872826e-19,-2.16840434497101e-19,0.599689628132849
108.9375,-1.62630325872826e-19,-2.16840434497101e-19,0.561821836896743
109,-1.0842021724855e-19,-4.33680868994202e-19,0.510120127456462
109.0625,-5.42101086242752e-20,0,0.445857567486602
109.125,-1.35525271560688e-19,-2.16840434497101e-19,0.370616514488739
109.1875,-8.13151629364128e-20,-1.0842021724855e-19,0.28624965289848
109.25,-5.42101086242752e-20,-1.0842021724855e-19,0.194834374845818
109.3125,-2.03287907341032e-20,-2.71050543121376e-20,0.0986216278661221
109.375,6.61744490042422e-24,6.61744490042422e-24,-1.95108980365914e-05
109.4375,2.03287907341032e-20,2.71050543121376e-20,-0.0986601692390439
109.5,4.06575814682064e-20,0,-0.194871486779154
109.5625,1.0842021724855e-19,1.0842021724855e-19,-0.286284421573372
109.625,8.13151629364128e-20,1.0842021724855e-19,-0.370648083784925
109.6875,1.0842021724855e-19,2.16840434497101e-19,-0.445885160063204
109.75,5.42101086242752e-20,0,-0.510143063892745
109.8125,5.42101086242752e-20,2.16840434497101e-19,-0.561839552421478
109.875,1.62630325872826e-19,2.16840434497101e-19,-0.599701686530993
109.9375,1.62630325872826e-19,0,-0.622797174822352
110,1.62630325872826e-19,4.33680868994202e-19,-0.630557329724257
110.0625,1.0842021724855e-19,0,-0.622791070468555
110.125,1.0842021724855e-19,-2.16840434497101e-19,-0.599689628132849
110.1875,1.0842021724855e-19,0,-0.561821836896738
110.25,2.16840434497101e-19,2.16840434497101e-19,-0.510120127456466
110.3125,1.0842021724855e-19,0,-0.445857567486558
110.375,2.71050543121376e-20,1.0842021724855e-19,-0.370616514488697
110.4375,5.42101086242752e-20,1.0842021724855e-19,-0.286249652898495
110.5,6.7762635780344e-20,1.0842021724855e-19,-0.19483437484574
110.5625,2.03287907341032e-20,5.42101086242752e-20,-0.0986216278660645
110.625,-6.61744490042422e-24,-6.61744490042422e-24,1.95108980044338e-05
110.6875,-4.74338450462408e-20,-2.71050543121376e-20,0.0986601692390972
110.75,-2.71050543121376e-20,-5.42101086242752e-20,0.194871486779192
110.8125,-8.13151629364128e-20,-1.0842021724855e-19,0.28628442157337
110.875,-1.0842021724855e-19,0,0.370648083784918
110.9375,-1.0842021724855e-19,0,0.445885160063214
111,-1.0842021724855e-19,-2.16840434497101e-19,0.510143063892705
111.0625,-2.16840434497101e-19,-4.33680868994202e-19,0.561839552421443
111.125,-1.0842021724855e-19,0,0.599701686530987
111.1875,-2.16840434497101e-19,-2.16840434497101e-19,0.622797174822333
111.25,-1.0842021724855e-19,-2.16840434497101e-19,0.630557329724249
111.3125,-1.0842021724855e-19,-2.16840434497101e-19,0.622791070468549
111.375,-1.0842021724855e-19,0,0.599689628132855
111.4375,-1.0842021724855e-19,-2.16840434497101e-19,0.561821836896746
111.5,-1.0842021724855e-19,0,0.510120127456457
111.5625,-1.0842021724855e-19,-2.16840434497101e-19,0.445857567486601
111.625,-1.0842021724855e-19,-1.0842021724855e-19,0.370616514488741
111.6875,-8.13151629364128e-20,-1.0842021724855e-19,0.286249652898476
111.75,-1.35525271560688e-20,-1.0842021724855e-19,0.194834374845799
111.8125,-2.03287907341032e-20,-2.71050543121376e-20,0.0986216278661192
111.875,4.96308367531817e-24,6.61744490042422e-24,-1.95108980407846e-05
111.9375,2.03287907341032e-20,2.71050543121376e-20,-0.098660169239106
112,5.42101086242752e-20,5.42101086242752e-20,-0.194871486779207
112.0625,5.42101086242752e-20,0,-0.286284421573415
112.125,5.42101086242752e-20,1.0842021724855e-19,-0.370648083784902
112.1875,1.62630325872826e-19,-2.16840434497101e-19,-0.4458851600632
112.25,5.42101086242752e-20,2.16840434497101e-19,-0.510143063892732
112.3125,1.0842021724855e-19,4.33680868994202e-19,-0.561839552421424
112.375,1.62630325872826e-19,2.16840434497101e-19,-0.599701686530969
112.4375,2.16840434497101e-19,2.16840434497101e-19,-0.62279717482233
112.5,1.62630325872826e-19,0,-0.63055732972424
112.5625,1.0842021724855e-19,2.16840434497101e-19,-0.622791070468538
112.625,1.62630325872826e-19,0,-0.599689628132832
112.6875,2.16840434497101e-19,0,-0.561821836896756
112.75,1.62630325872826e-19,2.16840434497101e-19,-0.510120127456476
112.8125,1.0842021724855e-19,0,-0.445857567486574
112.875,8.13151629364128e-20,0,-0.370616514488797
112.9375,5.42101086242752e-20,1.0842021724855e-19,-0.28624965289853
113,5.42101086242752e-20,5.42101086242752e-20,-0.194834374845773
113.0625,2.03287907341032e-20,2.71050543121376e-20,-0.0986216278661459
113.125,-4.96308367531817e-24,-6.61744490042422e-24,1.95108980360384e-05
113.1875,-2.03287907341032e-20,-2.71050543121376e-20,0.0986601692391354
113.25,-6.7762635780344e-20,-5.42101086242752e-20,0.194871486779146
113.3125,-1.0842021724855e-19,-3.25260651745651e-19,0.286284421573382
113.375,-1.0842021724855e-19,0,0.370648083784934
113.4375,-1.62630325872826e-19,-2.16840434497101e-19,0.445885160063168
113.5,-1.62630325872826e-19,-2.16840434497101e-19,0.510143063892712
113.5625,-1.0842021724855e-19,-2.16840434497101e-19,0.561839552421447
113.625,-1.62630325872826e-19,-2.16840434497101e-19,0.599701686530988
113.6875,-1.62630325872826e-19,0,0.622797174822339
113.75,-2.16840434497101e-19,-4.33680868994202e-19,0.630557329724243
113.8125,-1.0842021724855e-19,0,0.622791070468531
113.875,-1.62630325872826e-19,-2.16840434497101e-19,0.599689628132844
113.9375,-1.0842021724855e-19,2.16840434497101e-19,0.561821836896736
114,-5.42101086242752e-20,-2.16840434497101e-19,0.510120127456447
114.0625,-1.0842021724855e-19,-2.16840434497101e-19,0.445857567486601
114.125,-5.42101086242752e-20,-2.16840434497101e-19,0.370616514488748
114.1875,-8.13151629364128e-20,-2.16840434497101e-19,0.286249652898488
114.25,-4.06575814682064e-20,-5.42101086242752e-20,0.194834374845763
114.3125,-2.71050543121376e-20,-2.71050543121376e-20,0.0986216278660867
114.375,8.27180612553028e-24,6.61744490042422e-24,-1.95108980716797e-05
114.4375,2.03287907341032e-20,2.71050543121376e-20,-0.0986601692390954
114.5,2.71050543121376e-20,5.42101086242752e-20,-0.194871486779196
114.5625,8.13151629364128e-20,2.16840434497101e-19,-0.286284421573405
114.625,2.71050543121376e-20,1.0842021724855e-19,-0.370648083784885
114.6875,5.42101086242752e-20,0,-0.445885160063189
114.75,1.62630325872826e-19,2.16840434497101e-19,-0.510143063892727
114.8125,1.62630325872826e-19,4.33680868994202e-19,-0.561839552421448
114.875,1.0842021724855e-19,2.16840434497101e-19,-0.599701686530991
114.9375,1.62630325872826e-19,2.16840434497101e-19,-0.622797174822346
115,1.0842021724855e-19,2.16840434497101e-19,-0.630557329724249
115.0625,1.62630325872826e-19,2.16840434497101e-19,-0.622791070468544
115.125,1.62630325872826e-19,2.16840434497101e-19,-0.599689628132836
115.1875,1.0842021724855e-19,2.16840434497101e-19,-0.561821836896764
115.25,1.0842021724855e-19,4.33680868994202e-19,-0.51012012745648
115.3125,1.0842021724855e-19,0,-0.445857567486576
115.375,8.13151629364128e-20,2.16840434497101e-19,-0.370616514488745
115.4375,5.42101086242752e-20,0,-0.28624965289848
115.5,2.71050543121376e-20,5.42101086242752e-20,-0.194834374845723
115.5625,3.3881317890172e-20,2.71050543121376e-20,-0.0986216278661189
115.625,-3.30872245021211e-24,-6.61744490042422e-24,1.95108980401253e-05
115.6875,-6.7762635780344e-21,-5.42101086242752e-20,0.098660169239134
115.75,-2.71050543121376e-20,-5.42101086242752e-20,0.194871486779148
115.8125,-8.13151629364128e-20,-2.16840434497101e-19,0.286284421573361
115.875,-8.13151629364128e-20,0,0.370648083784911
115.9375,-1.0842021724855e-19,0,0.445885160063187
116,-1.0842021724855e-19,-4.33680868994202e-19,0.510143063892725
116.0625,-1.62630325872826e-19,-2.16840434497101e-19,0.561839552421457
116.125,-1.0842021724855e-19,0,0.599701686530975
116.1875,-1.0842021724855e-19,-2.16840434497101e-19,0.622797174822337
116.25,-1.0842021724855e-19,-2.16840434497101e-19,0.630557329724245
116.3125,-1.62630325872826e-19,-4.33680868994202e-19,0.622791070468553
116.375,-1.0842021724855e-19,0,0.599689628132855
116.4375,-1.62630325872826e-19,0,0.56182183689675
116.5,-1.0842021724855e-19,0,0.510120127456479
116.5625,-1.0842021724855e-19,-2.16840434497101e-19,0.445857567486577
116.625,-1.35525271560688e-19,-2.16840434497101e-19,0.370616514488718
116.6875,-8.13151629364128e-20,-2.16840434497101e-19,0.286249652898516
116.75,-5.42101086242752e-20,-1.0842021724855e-19,0.194834374845755
116.8125,-1.35525271560688e-20,-8.13151629364128e-20,0.0986216278660735
116.875,4.96308367531817e-24,0,-1.95108979923473e-05
116.9375,2.71050543121376e-20,2.71050543121376e-20,-0.0986601692391017
117,2.71050543121376e-20,5.42101086242752e-20,-0.194871486779203
117.0625,8.13151629364128e-20,1.0842021724855e-19,-0.286284421573368
117.125,8.13151629364128e-20,0,-0.370648083784935
117.1875,1.0842021724855e-19,0,-0.445885160063232
117.25,1.0842021724855e-19,0,-0.510143063892706
117.3125,1.62630325872826e-19,2.16840434497101e-19,-0.561839552421448
117.375,1.62630325872826e-19,4.33680868994202e-19,-0.599701686530986
117.4375,5.42101086242752e-20,0,-0.622797174822327
