time,ax,ay,az
0,4.33680868994202e-19,1.73472347597681e-18,-1.89941508933244
0.0625,4.33680868994202e-19,0,-1.87563083210353
0.125,4.33680868994202e-19,8.67361737988404e-19,-1.80475866511469
0.1875,4.33680868994202e-19,0,-1.68877489933453
0.25,1.0842021724855e-19,0,-1.5308610862841
0.3125,1.0842021724855e-19,0,-1.33527381743335
0.375,2.16840434497101e-19,4.33680868994202e-19,-1.10718297896368
0.4375,2.16840434497101e-19,0,-0.852491405184708
0.5,1.0842021724855e-19,4.33680868994202e-19,-0.577648270736989
0.5625,2.71050543121376e-20,0,-0.289466696262133
0.625,-1.27054942088145e-21,-1.6940658945086e-21,0.0050469087790656
0.6875,-1.35525271560688e-19,0,0.298847751082761
0.75,-1.0842021724855e-19,-2.16840434497101e-19,0.584991273259449
0.8125,-2.16840434497101e-19,0,0.856757861269062
0.875,-1.0842021724855e-19,-4.33680868994202e-19,1.1077679098775
0.9375,-4.33680868994202e-19,-4.33680868994202e-19,1.33209215243041
1,-4.33680868994202e-19,-4.33680868994202e-19,1.52436149471181
1.0625,-4.33680868994202e-19,-4.33680868994202e-19,1.67987879406814
1.125,-2.16840434497101e-19,0,1.79473244329243
1.1875,-6.50521303491303e-19,-1.73472347597681e-18,1.86590872228821
1.25,-6.50521303491303e-19,0,1.891397181205
1.3125,-6.50521303491303e-19,0,1.87028129185495
1.375,-8.67361737988404e-19,-8.67361737988404e-19,1.8028056159023
1.4375,-4.33680868994202e-19,-4.33680868994202e-19,1.69041099150581
1.5,-4.33680868994202e-19,-4.33680868994202e-19,1.53573074671247
1.5625,-4.33680868994202e-19,-4.33680868994202e-19,1.34254353066004
1.625,-4.33680868994202e-19,-8.67361737988404e-19,1.11568167637622
1.6875,-2.16840434497101e-19,-4.33680868994202e-19,0.860897630076106
1.75,-1.62630325872826e-19,0,0.584694422232676
1.8125,-1.0842021724855e-19,-1.0842021724855e-19,0.29412897029748
1.875,8.470329472543e-22,1.6940658945086e-21,-0.0034011546261896
1.9375,5.42101086242752e-20,0,-0.300376194502878
2,5.42101086242752e-20,2.16840434497101e-19,-0.589367132355003
2.0625,1.0842021724855e-19,2.16840434497101e-19,-0.863233900256173
2.125,1.0842021724855e-19,8.67361737988404e-19,-1.11530205426598
2.1875,4.33680868994202e-19,4.33680868994202e-19,-1.33951387073133
2.25,2.16840434497101e-19,8.67361737988404e-19,-1.53055257190488
2.3125,4.33680868994202e-19,0,-1.68394074308278
2.375,4.33680868994202e-19,8.67361737988404e-19,-1.79611565768262
2.4375,6.50521303491303e-19,0,-1.86448500652083
2.5,4.33680868994202e-19,8.67361737988404e-19,-1.88746640624994
2.5625,4.33680868994202e-19,0,-1.8645131583159
2.625,6.50521303491303e-19,8.67361737988404e-19,-1.79612728416406
2.6875,4.33680868994202e-19,4.33680868994202e-19,-1.68385919451106
2.75,5.42101086242752e-19,8.67361737988404e-19,-1.5302918067373
2.8125,3.25260651745651e-19,0,-1.33900582262212
2.875,4.33680868994202e-19,4.33680868994202e-19,-1.11452245854335
2.9375,2.16840434497101e-19,4.33680868994202e-19,-0.862220307706057
3,1.62630325872826e-19,2.16840434497101e-19,-0.588224203142143
3.0625,5.42101086242752e-20,1.0842021724855e-19,-0.299265806672986
3.125,8.470329472543e-22,8.470329472543e-22,-0.00251793211766358
3.1875,-8.13151629364128e-20,-2.16840434497101e-19,0.294592987948567
3.25,-2.16840434497101e-19,-2.16840434497101e-19,0.584589692911657
3.3125,-3.25260651745651e-19,-2.16840434497101e-19,0.860153865422376
3.375,-1.0842021724855e-19,-4.33680868994202e-19,1.11433366780525
3.4375,-3.25260651745651e-19,-4.33680868994202e-19,1.34073975164469
3.5,-6.50521303491303e-19,-8.67361737988404e-19,1.53372123689736
3.5625,-4.33680868994202e-19,-4.33680868994202e-19,1.68851469504647
3.625,-6.50521303491303e-19,-8.67361737988404e-19,1.80136124676147
3.6875,-4.33680868994202e-19,-8.67361737988404e-19,1.86958922281823
3.75,-4.33680868994202e-19,-8.67361737988404e-19,1.89166214108451
3.8125,-6.50521303491303e-19,-1.73472347597681e-18,1.86719374832825
3.875,-4.33680868994202e-19,0,1.79693335122209
3.9375,-4.33680868994202e-19,-1.30104260698261e-18,1.68272549382274
4,-4.33680868994202e-19,-4.33680868994202e-19,1.52744821017768
4.0625,-1.0842021724855e-19,-4.33680868994202e-19,1.33493367284542
4.125,-3.25260651745651e-19,-8.67361737988404e-19,1.10987423675794
4.1875,-2.16840434497101e-19,-2.16840434497101e-19,0.85771586250363
4.25,-1.62630325872826e-19,0,0.584539930186654
4.3125,-1.0842021724855e-19,-1.0842021724855e-19,0.296933739720446
4.375,-6.35274710440725e-22,0,0.00184969612825818
4.4375,5.42101086242752e-20,1.0842021724855e-19,-0.29354661933749
4.5,1.0842021724855e-19,2.16840434497101e-19,-0.582038598192557
4.5625,1.0842021724855e-19,4.33680868994202e-19,-0.856528990954704
4.625,3.25260651745651e-19,4.33680868994202e-19,-1.11021522928066
4.6875,5.42101086242752e-19,4.33680868994202e-19,-1.33676504405265
4.75,3.25260651745651e-19,4.33680868994202e-19,-1.53048660062565
4.8125,4.33680868994202e-19,4.33680868994202e-19,-1.68648662986491
4.875,2.16840434497101e-19,0,-1.80080983051958
4.9375,2.16840434497101e-19,0,-1.8705532238176
5,6.50521303491303e-19,8.67361737988404e-19,-1.89395014002332
5.0625,4.33680868994202e-19,8.67361737988404e-19,-1.87042001351259
5.125,2.16840434497101e-19,0,-1.8005819965623
5.1875,4.33680868994202e-19,4.33680868994202e-19,-1.68623237017047
5.25,3.25260651745651e-19,0,-1.53028761898232
5.3125,3.25260651745651e-19,0,-1.33669665198483
5.375,2.16840434497101e-19,0,-1.11032684193538
5.4375,2.16840434497101e-19,4.33680868994202e-19,-0.856829240153423
5.5,2.16840434497101e-19,2.16840434497101e-19,-0.582488488434979
5.5625,8.13151629364128e-20,0,-0.294062656600833
5.625,-3.17637355220363e-22,-4.2351647362715e-22,0.00138239923817925
5.6875,-8.13151629364128e-20,-2.16840434497101e-19,0.296640381015674
5.75,-1.62630325872826e-19,-4.33680868994202e-19,0.584530655955432
5.8125,-1.0842021724855e-19,-4.33680868994202e-19,0.858060891430057
5.875,-2.16840434497101e-19,-4.33680868994202e-19,1.11058444091696
5.9375,-3.25260651745651e-19,-4.33680868994202e-19,1.33595085907777
6,-4.33680868994202e-19,-8.67361737988404e-19,1.52864777715939
6.0625,-4.33680868994202e-19,-8.67361737988404e-19,1.68393198338837
6.125,-4.33680868994202e-19,-8.67361737988404e-19,1.79794703544492
6.1875,-6.50521303491303e-19,-8.67361737988404e-19,1.86782422013434
6.25,-4.33680868994202e-19,-8.67361737988404e-19,1.89176331095119
6.3125,-4.33680868994202e-19,-8.67361737988404e-19,1.86908948126981
6.375,-6.50521303491303e-19,0,1.80028299536199
6.4375,-4.33680868994202e-19,-4.33680868994202e-19,1.68697895550251
6.5,-5.42101086242752e-19,-4.33680868994202e-19,1.53193540777081
6.5625,-4.33680868994202e-19,-8.67361737988404e-19,1.33896942409349
6.625,-3.25260651745651e-19,-4.33680868994202e-19,1.1128622627437
6.6875,-2.16840434497101e-19,-2.16840434497101e-19,0.859236217307911
6.75,-2.16840434497101e-19,-4.33680868994202e-19,0.584407143618087
6.8125,-2.71050543121376e-20,-2.16840434497101e-19,0.295217770156191
6.875,1.05879118406788e-22,4.2351647362715e-22,-0.00114235066181297
6.9375,5.42101086242752e-20,0,-0.29732405857487
7,1.62630325872826e-19,2.16840434497101e-19,-0.586006861205086
7.0625,1.0842021724855e-19,0,-0.86008261459597
7.125,3.25260651745651e-19,4.33680868994202e-19,-1.11282968540402
7.1875,2.16840434497101e-19,8.67361737988404e-19,-1.33807356630571
7.25,4.33680868994202e-19,0,-1.5303308508819
7.3125,4.33680868994202e-19,4.33680868994202e-19,-1.68493433682912
7.375,2.16840434497101e-19,8.67361737988404e-19,-1.79813773163415
7.4375,4.33680868994202e-19,8.67361737988404e-19,-1.86719893550594
7.5,4.33680868994202e-19,8.67361737988404e-19,-1.89044116761176
7.5625,4.33680868994202e-19,1.73472347597681e-18,-1.86729131912787
7.625,2.16840434497101e-19,0,-1.79829492787955
7.6875,4.33680868994202e-19,1.30104260698261e-18,-1.68510716084345
7.75,2.16840434497101e-19,4.33680868994202e-19,-1.53045925204967
7.8125,3.25260651745651e-19,4.33680868994202e-19,-1.33810005131571
7.875,3.25260651745651e-19,4.33680868994202e-19,-1.11271274455421
7.9375,1.0842021724855e-19,2.16840434497101e-19,-0.85980742480249
8,5.42101086242752e-20,0,-0.585591001855686
8.0625,8.13151629364128e-20,1.0842021724855e-19,-0.296816878934447
8.125,1.58818677610181e-22,0,-0.000617811112507026
8.1875,-8.13151629364128e-20,-1.0842021724855e-19,0.295673708944
8.25,-1.0842021724855e-19,-2.16840434497101e-19,0.584712418908348
8.3125,-3.25260651745651e-19,-4.33680868994202e-19,0.859328961258073
8.375,-4.33680868994202e-19,-4.33680868994202e-19,1.11271439622292
8.4375,-2.16840434497101e-19,0,1.33859479885563
8.5,-4.33680868994202e-19,-4.33680868994202e-19,1.53139062392464
8.5625,-4.33680868994202e-19,-1.30104260698261e-18,1.68635623916168
8.625,-2.16840434497101e-19,0,1.79969594922846
8.6875,-6.50521303491303e-19,-1.73472347597681e-18,1.86865386863134
8.75,-2.16840434497101e-19,-8.67361737988404e-19,1.89157605641608
8.8125,-4.33680868994202e-19,0,1.86794431219731
8.875,-6.50521303491303e-19,-8.67361737988404e-19,1.79838188494151
8.9375,-2.16840434497101e-19,-4.33680868994202e-19,1.68463202319054
9,-2.16840434497101e-19,-4.33680868994202e-19,1.5295107886529
9.0625,-4.33680868994202e-19,-4.33680868994202e-19,1.33683588354682
9.125,-2.16840434497101e-19,0,1.1113334477071
9.1875,-2.16840434497101e-19,-4.33680868994202e-19,0.858524919801773
9.25,-2.16840434497101e-19,-2.16840434497101e-19,0.584596186278726
9.3125,-5.42101086242752e-20,0,0.296251412068098
9.375,-1.05879118406788e-22,0,0.000554191665842838
9.4375,5.42101086242752e-20,1.0842021724855e-19,-0.295241011983339
9.5,1.0842021724855e-19,4.33680868994202e-19,-0.583863775500202
9.5625,2.16840434497101e-19,4.33680868994202e-19,-0.858205175788602
9.625,2.16840434497101e-19,0,-1.11149360454524
9.6875,3.25260651745651e-19,4.33680868994202e-19,-1.33746442084416
9.75,2.16840434497101e-19,4.33680868994202e-19,-1.53051875943925
9.8125,4.33680868994202e-19,1.30104260698261e-18,-1.68586684700645
9.875,2.16840434497101e-19,8.67361737988404e-19,-1.79965144601945
9.9375,2.16840434497101e-19,0,-1.86904755339151
10,4.33680868994202e-19,8.67361737988404e-19,-1.89233520919618
10.0625,4.33680868994202e-19,8.67361737988404e-19,-1.86894317630612
10.125,4.33680868994202e-19,8.67361737988404e-19,-1.79946227256227
10.1875,4.33680868994202e-19,4.33680868994202e-19,-1.68562820028725
10.25,2.16840434497101e-19,4.33680868994202e-19,-1.53027474928582
10.3125,2.16840434497101e-19,8.67361737988404e-19,-1.33725918226079
10.375,2.16840434497101e-19,4.33680868994202e-19,-1.11136239444705
10.4375,1.0842021724855e-19,0,-0.858167041336741
10.5,1.0842021724855e-19,4.33680868994202e-19,-0.583917241224955
10.5625,8.13151629364128e-20,1.0842021724855e-19,-0.295363695702023
10.625,-1.05879118406788e-22,-2.11758236813575e-22,0.000401839164940505
10.6875,-1.0842021724855e-19,0,0.296118815318704
10.75,-1.0842021724855e-19,0,0.584533054083083
10.8125,-2.16840434497101e-19,-2.16840434497101e-19,0.858571077994823
10.875,-4.33680868994202e-19,-4.33680868994202e-19,1.11150998911385
10.9375,-3.25260651745651e-19,0,1.33713935992551
11,-2.16840434497101e-19,-4.33680868994202e-19,1.52991168255676
11.0625,-6.50521303491303e-19,-1.30104260698261e-18,1.68507800982276
11.125,-6.50521303491303e-19,-8.67361737988404e-19,1.79880554707602
11.1875,-6.50521303491303e-19,-1.73472347597681e-18,1.86827415135384
11.25,-2.16840434497101e-19,-8.67361737988404e-19,1.89174899661031
11.3125,-4.33680868994202e-19,0,1.86862709532726
11.375,-4.33680868994202e-19,-1.73472347597681e-18,1.79945593852383
11.4375,-4.33680868994202e-19,-8.67361737988404e-19,1.68592322241128
11.5,-5.42101086242752e-19,-4.33680868994202e-19,1.53081744754126
11.5625,-3.25260651745651e-19,-4.33680868994202e-19,1.33796006657119
11.625,-3.25260651745651e-19,-4.33680868994202e-19,1.11211076961756
11.6875,-2.16840434497101e-19,-4.33680868994202e-19,0.858848375837747
11.75,-2.16840434497101e-19,-4.33680868994202e-19,0.584430591560296
11.8125,-8.13151629364128e-20,0,0.295636551426035
11.875,5.29395592033938e-23,1.05879118406788e-22,-0.000403455394372394
11.9375,1.0842021724855e-19,1.0842021724855e-19,-0.296386375820181
12,5.42101086242752e-20,2.16840434497101e-19,-0.585018097679764
12.0625,2.16840434497101e-19,4.33680868994202e-19,-0.859193738887644
12.125,2.16840434497101e-19,0,-1.11217201438554
12.1875,2.16840434497101e-19,0,-1.33773951293749
12.25,5.42101086242752e-19,4.33680868994202e-19,-1.53036113239416
12.3125,6.50521303491303e-19,4.33680868994202e-19,-1.68531338147774
12.375,4.33680868994202e-19,0,-1.79879773075574
12.4375,6.50521303491303e-19,0,-1.86803166759392
12.5,4.33680868994202e-19,1.73472347597681e-18,-1.89131557294304
12.5625,6.50521303491303e-19,8.67361737988404e-19,-1.86807399542383
12.625,6.50521303491303e-19,8.67361737988404e-19,-1.79887036143706
12.6875,6.50521303491303e-19,8.67361737988404e-19,-1.68539464368746
12.75,2.16840434497101e-19,0,-1.53042402851487
12.8125,2.16840434497101e-19,8.67361737988404e-19,-1.33775718368222
12.875,4.33680868994202e-19,4.33680868994202e-19,-1.11212333327783
12.9375,2.16840434497101e-19,6.50521303491303e-19,-0.859067985292037
13,5.42101086242752e-20,4.33680868994202e-19,-0.584817809765789
13.0625,1.0842021724855e-19,1.0842021724855e-19,-0.296127801639837
13.125,3.97046694025453e-23,5.29395592033938e-23,-0.000114446951095975
13.1875,-8.13151629364128e-20,-1.0842021724855e-19,0.295920893739555
13.25,-2.16840434497101e-19,-4.33680868994202e-19,0.584673799876079
13.3125,-2.16840434497101e-19,-6.50521303491303e-19,0.859019000122182
13.375,-2.16840434497101e-19,0,1.11218812486483
13.4375,-4.33680868994202e-19,-8.67361737988404e-19,1.33793827822745
13.5,-3.25260651745651e-19,-4.33680868994202e-19,1.53070700163649
13.5625,-6.50521303491303e-19,-8.67361737988404e-19,1.68574964562076
13.625,-4.33680868994202e-19,-8.67361737988404e-19,1.79925573125992
13.6875,-2.16840434497101e-19,-8.67361737988404e-19,1.86844153309062
13.75,-8.67361737988404e-19,0,1.89161681515538
13.8125,-4.33680868994202e-19,0,1.86822436728698
13.875,-2.16840434497101e-19,0,1.79885169117973
13.9375,-6.50521303491303e-19,-4.33680868994202e-19,1.68521485446227
14,-4.33680868994202e-19,-8.67361737988404e-19,1.53011515347908
14.0625,-3.25260651745651e-19,-4.33680868994202e-19,1.33736979735538
14.125,-1.0842021724855e-19,0,1.11171834889276
14.1875,-2.16840434497101e-19,-2.16840434497101e-19,0.858707137258625
14.25,-1.62630325872826e-19,-4.33680868994202e-19,0.584554299268946
14.3125,-8.13151629364128e-20,-1.0842021724855e-19,0.295998514133056
14.375,-2.64697796016969e-23,-5.29395592033938e-23,0.00013487023921265
14.4375,1.0842021724855e-19,2.16840434497101e-19,-0.295758364326346
14.5,1.62630325872826e-19,2.16840434497101e-19,-0.584398015305758
14.5625,2.16840434497101e-19,2.16840434497101e-19,-0.85867505635284
14.625,3.25260651745651e-19,0,-1.11183005744704
14.6875,3.25260651745651e-19,0,-1.33762062638332
14.75,4.33680868994202e-19,8.67361737988404e-19,-1.53047655081335
14.8125,4.33680868994202e-19,1.30104260698261e-18,-1.68563859104044
14.875,6.50521303491303e-19,0,-1.79927725273811
14.9375,2.16840434497101e-19,8.67361737988404e-19,-1.86858837711142
15,6.50521303491303e-19,8.67361737988404e-19,-1.89186300772759
15.0625,2.16840434497101e-19,0,-1.86852970424102
15.125,4.33680868994202e-19,8.67361737988404e-19,-1.79916824348694
15.1875,4.33680868994202e-19,8.67361737988404e-19,-1.68549444464701
15.25,1.0842021724855e-19,8.67361737988404e-19,-1.53031664394298
15.3125,5.42101086242752e-19,4.33680868994202e-19,-1.33746509484129
15.375,3.25260651745651e-19,4.33680868994202e-19,-1.11169625640961
15.4375,1.0842021724855e-19,2.16840434497101e-19,-0.858574536306702
15.5,1.0842021724855e-19,2.16840434497101e-19,-0.584334564272724
15.5625,8.13151629364128e-20,2.16840434497101e-19,-0.295727482230301
15.625,-5.29395592033938e-23,0,0.000144950729055171
15.6875,-1.0842021724855e-19,-1.0842021724855e-19,0.296004421136171
15.75,-2.16840434497101e-19,-4.33680868994202e-19,0.584574141580765
15.8125,-2.16840434497101e-19,0,0.858756745459623
15.875,-2.16840434497101e-19,-4.33680868994202e-19,1.11180781417776
15.9375,-4.33680868994202e-19,-4.33680868994202e-19,1.33750094888233
16,-4.33680868994202e-19,-4.33680868994202e-19,1.53028046587317
16.0625,-4.33680868994202e-19,-4.33680868994202e-19,1.68539803795783
16.125,-4.33680868994202e-19,-8.67361737988404e-19,1.79902992715042
16.1875,-6.50521303491303e-19,-8.67361737988404e-19,1.86837186051583
16.25,-4.33680868994202e-19,-8.67361737988404e-19,1.89170909141792
16.3125,-6.50521303491303e-19,-8.67361737988404e-19,1.86845975959049
16.375,-6.50521303491303e-19,-8.67361737988404e-19,1.79919030666514
16.4375,-4.33680868994202e-19,-8.67361737988404e-19,1.68560240460274
16.5,-2.16840434497101e-19,-4.33680868994202e-19,1.53049159289383
16.5625,-3.25260651745651e-19,-4.33680868994202e-19,1.33767857191312
16.625,-1.0842021724855e-19,-4.33680868994202e-19,1.11191483709702
16.6875,-1.0842021724855e-19,-4.33680868994202e-19,0.858765033555025
16.75,-1.62630325872826e-19,-4.33680868994202e-19,0.584469036708985
16.8125,-8.13151629364128e-20,-1.0842021724855e-19,0.295787298494156
16.875,5.29395592033938e-23,1.05879118406788e-22,-0.00016657729045956
16.9375,1.0842021724855e-19,1.0842021724855e-19,-0.29610176430196
17,2.16840434497101e-19,2.16840434497101e-19,-0.584730205264694
17.0625,1.0842021724855e-19,2.16840434497101e-19,-0.858946172364144
17.125,2.16840434497101e-19,4.33680868994202e-19,-1.11200097025577
17.1875,2.16840434497101e-19,4.33680868994202e-19,-1.33766853085597
17.25,4.33680868994202e-19,8.67361737988404e-19,-1.53039791971234
17.3125,2.16840434497101e-19,4.33680868994202e-19,-1.68544912628075
17.375,4.33680868994202e-19,8.67361737988404e-19,-1.79900893210732
17.4375,2.16840434497101e-19,1.73472347597681e-18,-1.86828413042541
17.5,4.33680868994202e-19,8.67361737988404e-19,-1.89156989853046
17.5625,4.33680868994202e-19,8.67361737988404e-19,-1.86829169256809
17.625,4.33680868994202e-19,1.73472347597681e-18,-1.79901963606199
17.6875,6.50521303491303e-19,8.67361737988404e-19,-1.68545500160707
17.75,3.25260651745651e-19,4.33680868994202e-19,-1.5303890315944
17.8125,5.42101086242752e-19,8.67361737988404e-19,-1.3376349985972
17.875,2.16840434497101e-19,0,-1.11193505655834
17.9375,1.0842021724855e-19,4.33680868994202e-19,-0.858844064890767
18,1.62630325872826e-19,4.33680868994202e-19,-0.584593161386462
18.0625,8.13151629364128e-20,1.0842021724855e-19,-0.295936397263193
18.125,-3.30872245021211e-24,0,1.57907032848155e-05
18.1875,-8.13151629364128e-20,-1.0842021724855e-19,0.295972128473573
18.25,-1.62630325872826e-19,-4.33680868994202e-19,0.584640673104217
18.3125,-2.16840434497101e-19,0,0.85890906412015
18.375,-2.16840434497101e-19,-4.33680868994202e-19,1.11202031178761
18.4375,-4.33680868994202e-19,0,1.33773969554619
18.5,-2.16840434497101e-19,-8.67361737988404e-19,1.53050858879192
18.5625,-4.33680868994202e-19,-8.67361737988404e-19,1.68558138265005
18.625,-2.16840434497101e-19,-8.67361737988404e-19,1.7991421370144
18.6875,-4.33680868994202e-19,0,1.86839812463778
18.75,-4.33680868994202e-19,-1.73472347597681e-18,1.89164803442972
18.8125,-4.33680868994202e-19,-8.67361737988404e-19,1.86832324404422
18.875,-4.33680868994202e-19,-8.67361737988404e-19,1.79900124078967
18.9375,-4.33680868994202e-19,-8.67361737988404e-19,1.68539094694212
19,-5.42101086242752e-19,-4.33680868994202e-19,1.53029037578297
19.0625,-2.16840434497101e-19,-8.67361737988404e-19,1.33751769525507
19.125,-2.16840434497101e-19,-4.33680868994202e-19,1.11181739593916
19.1875,-3.25260651745651e-19,-4.33680868994202e-19,0.858743839250792
19.25,-1.0842021724855e-19,-2.16840434497101e-19,0.584524991157363
19.3125,-2.71050543121376e-20,-1.0842021724855e-19,0.295909617261695
19.375,-2.06795153138257e-25,-8.27180612553028e-25,1.61751683412422e-06
19.4375,5.42101086242752e-20,2.16840434497101e-19,-0.295914496429858
19.5,1.62630325872826e-19,0,-0.584552740820913
19.5625,2.16840434497101e-19,6.50521303491303e-19,-0.858805034819382
19.625,4.33680868994202e-19,0,-1.1119163927089
19.6875,3.25260651745651e-19,8.67361737988404e-19,-1.33765158814509
19.75,4.33680868994202e-19,4.33680868994202e-19,-1.53044913112039
19.8125,4.33680868994202e-19,4.33680868994202e-19,-1.68555869562039
19.875,6.50521303491303e-19,8.67361737988404e-19,-1.79915853948658
19.9375,6.50521303491303e-19,8.67361737988404e-19,-1.8684499580845
20,4.33680868994202e-19,8.67361737988404e-19,-1.89172639622635
20.0625,4.33680868994202e-19,8.67361737988404e-19,-1.8684154911432
20.125,6.50521303491303e-19,8.67361737988404e-19,-1.79909301328656
20.1875,4.33680868994202e-19,4.33680868994202e-19,-1.68546839003162
20.25,2.16840434497101e-19,4.33680868994202e-19,-1.53034221832423
20.3125,3.25260651745651e-19,4.33680868994202e-19,-1.33753687515032
20.375,3.25260651745651e-19,4.33680868994202e-19,-1.11180200036729
20.4375,2.16840434497101e-19,6.50521303491303e-19,-0.858697238339752
20.5,1.62630325872826e-19,2.16840434497101e-19,-0.584455169236772
20.5625,8.13151629364128e-20,0,-0.295827826975448
20.625,-1.98523347012727e-23,0,7.94193698247171e-05
20.6875,-5.42101086242752e-20,-1.0842021724855e-19,0.295982555945793
20.75,-5.42101086242752e-20,-2.16840434497101e-19,0.584597929115035
20.8125,-2.16840434497101e-19,-6.50521303491303e-19,0.858821213048095
20.875,-2.16840434497101e-19,-4.33680868994202e-19,1.11190199144512
20.9375,-5.42101086242752e-19,-8.67361737988404e-19,1.33760970665534
21,-6.50521303491303e-19,-8.67361737988404e-19,1.5303869280891
21.0625,-4.33680868994202e-19,-4.33680868994202e-19,1.68548618478151
21.125,-6.50521303491303e-19,-8.67361737988404e-19,1.79908699013308
21.1875,-4.33680868994202e-19,0,1.86839015410302
21.25,-2.16840434497101e-19,0,1.89168702103056
21.3125,-4.33680868994202e-19,-8.67361737988404e-19,1.86840187878313
21.375,-4.33680868994202e-19,-1.73472347597681e-18,1.79910644342193
21.4375,-4.33680868994202e-19,0,1.68550601690253
21.5,-5.42101086242752e-19,-4.33680868994202e-19,1.53039762532019
21.5625,-5.42101086242752e-19,-4.33680868994202e-19,1.33760115228768
21.625,-4.33680868994202e-19,0,1.1118651660601
21.6875,-2.16840434497101e-19,-2.16840434497101e-19,0.858749780208733
21.75,-5.42101086242752e-20,-2.16840434497101e-19,0.584489467507984
21.8125,-8.13151629364128e-20,0,0.295839248901799
21.875,2.64697796016969e-23,2.64697796016969e-23,-9.19095314374146e-05
21.9375,2.71050543121376e-20,0,-0.296016348963228
22,5.42101086242752e-20,0,-0.584647275105254
22.0625,2.16840434497101e-19,2.16840434497101e-19,-0.858878185211868
22.125,3.25260651745651e-19,4.33680868994202e-19,-1.11195774970382
22.1875,2.16840434497101e-19,0,-1.33765586117116
22.25,6.50521303491303e-19,8.67361737988404e-19,-1.53041679359204
22.3125,2.16840434497101e-19,8.67361737988404e-19,-1.6854957394386
22.375,4.33680868994202e-19,8.67361737988404e-19,-1.79907540296701
22.4375,4.33680868994202e-19,1.73472347597681e-18,-1.86835981427539
22.5,4.33680868994202e-19,1.73472347597681e-18,-1.89164307959717
22.5625,4.33680868994202e-19,1.73472347597681e-18,-1.86835138688767
22.625,4.33680868994202e-19,1.73472347597681e-18,-1.79905722934727
22.6875,4.33680868994202e-19,4.33680868994202e-19,-1.68546547956708
22.75,4.33680868994202e-19,4.33680868994202e-19,-1.53037162907345
22.8125,3.25260651745651e-19,4.33680868994202e-19,-1.33759318697233
22.875,3.25260651745651e-19,4.33680868994202e-19,-1.11187589127066
22.9375,2.16840434497101e-19,0,-0.858777011025786
23,2.16840434497101e-19,2.16840434497101e-19,-0.584528590540185
23.0625,1.0842021724855e-19,2.16840434497101e-19,-0.295883992775496
23.125,-9.92616735063633e-24,-1.32348898008484e-23,4.84763732195864e-05
23.1875,-8.13151629364128e-20,-2.16840434497101e-19,0.295980750804536
23.25,-2.16840434497101e-19,0,0.584624655265226
23.3125,-2.16840434497101e-19,-2.16840434497101e-19,0.858871570437052
23.375,-3.25260651745651e-19,-4.33680868994202e-19,1.11196765662774
23.4375,-3.25260651745651e-19,0,1.3376802939922
23.5,-3.25260651745651e-19,-4.33680868994202e-19,1.53045162151301
23.5625,-6.50521303491303e-19,0,1.68553538536713
23.625,-4.33680868994202e-19,-8.67361737988404e-19,1.79911373000282
23.6875,-2.16840434497101e-19,-8.67361737988404e-19,1.8683910700445
23.75,-6.50521303491303e-19,-1.73472347597681e-18,1.89166275397546
23.8125,-6.50521303491303e-19,-8.67361737988404e-19,1.86835685610324
23.875,-2.16840434497101e-19,-8.67361737988404e-19,1.79904809556914
23.9375,-4.33680868994202e-19,-4.33680868994202e-19,1.68544356384964
24,-1.0842021724855e-19,0,1.53034062918448
24.0625,-5.42101086242752e-19,-4.33680868994202e-19,1.33755806192926
24.125,-3.25260651745651e-19,-4.33680868994202e-19,1.11184207384457
24.1875,-2.16840434497101e-19,-2.16840434497101e-19,0.858749572415603
24.25,-1.0842021724855e-19,-2.16840434497101e-19,0.584511484899365
24.3125,-1.0842021724855e-19,-1.0842021724855e-19,0.295879493351896
24.375,6.61744490042422e-24,1.32348898008484e-23,-4.00700530747575e-05
24.4375,8.13151629364128e-20,1.0842021724855e-19,-0.295961098635779
24.5,1.0842021724855e-19,2.16840434497101e-19,-0.584597066578054
24.5625,2.16840434497101e-19,4.33680868994202e-19,-0.858840454095106
24.625,3.25260651745651e-19,4.33680868994202e-19,-1.11193782155448
24.6875,4.33680868994202e-19,4.33680868994202e-19,-1.3376562103482
24.75,5.42101086242752e-19,4.33680868994202e-19,-1.53043675536627
24.8125,4.33680868994202e-19,4.33680868994202e-19,-1.68553170518621
24.875,2.16840434497101e-19,0,-1.7991214543685
24.9375,6.50521303491303e-19,1.73472347597681e-18,-1.86840868742759
25,4.33680868994202e-19,8.67361737988404e-19,-1.89168730338061
25.0625,4.33680868994202e-19,8.67361737988404e-19,-1.86838441829393
25.125,4.33680868994202e-19,0,-1.79907441428193
25.1875,4.33680868994202e-19,4.33680868994202e-19,-1.68546469919373
25.25,3.25260651745651e-19,8.67361737988404e-19,-1.53035354351023
25.3125,3.25260651745651e-19,4.33680868994202e-19,-1.33756105166406
25.375,2.16840434497101e-19,8.67361737988404e-19,-1.11183498668374
25.4375,2.16840434497101e-19,4.33680868994202e-19,-0.858733783522758
25.5,1.62630325872826e-19,0,-0.584489642986677
25.5625,8.13151629364128e-20,1.0842021724855e-19,-0.295855081958
25.625,-1.98523347012727e-23,-2.64697796016969e-23,6.32842080380221e-05
25.6875,-5.42101086242752e-20,-1.0842021724855e-19,0.295979643442136
25.75,-5.42101086242752e-20,-4.33680868994202e-19,0.584608280368629
25.8125,-2.16840434497101e-19,-2.16840434497101e-19,0.858842863430953
25.875,-2.16840434497101e-19,-4.33680868994202e-19,1.11193132803862
25.9375,-4.33680868994202e-19,0,1.33764206399756
26,-5.42101086242752e-19,0,1.53041732500847
26.0625,-4.33680868994202e-19,-4.33680868994202e-19,1.68551008670487
26.125,-2.16840434497101e-19,0,1.79910098089546
26.1875,-4.33680868994202e-19,-8.67361737988404e-19,1.8683924184629
26.25,-6.50521303491303e-19,-1.73472347597681e-18,1.89167757068335
26.3125,-2.16840434497101e-19,8.67361737988404e-19,1.86838249545768
26.375,-2.16840434497101e-19,-8.67361737988404e-19,1.7990803561978
26.4375,-4.33680868994202e-19,-4.33680868994202e-19,1.68547737053465
26.5,-6.50521303491303e-19,-1.30104260698261e-18,1.53037082622775
26.5625,-3.25260651745651e-19,-8.67361737988404e-19,1.33758019473651
26.625,-3.25260651745651e-19,0,1.11185304096759
26.6875,-2.16840434497101e-19,-4.33680868994202e-19,0.858748053421555
26.75,-2.71050543121376e-19,-4.33680868994202e-19,0.584498086171307
26.8125,-1.0842021724855e-19,-1.0842021724855e-19,0.295856598298589
26.875,1.98523347012727e-23,2.64697796016969e-23,-6.87148198922949e-05
26.9375,5.42101086242752e-20,0,-0.295990990648948
27,2.16840434497101e-19,0,-0.584623650762706
27.0625,2.16840434497101e-19,2.16840434497101e-19,-0.858859812741972
27.125,2.16840434497101e-19,0,-1.11194724714916
27.1875,2.16840434497101e-19,4.33680868994202e-19,-1.33765457822127
27.25,4.33680868994202e-19,8.67361737988404e-19,-1.53042464588973
27.3125,2.16840434497101e-19,8.67361737988404e-19,-1.68551126460725
27.375,4.33680868994202e-19,8.67361737988404e-19,-1.79909602320038
27.4375,4.33680868994202e-19,0,-1.8683822595719
27.5,4.33680868994202e-19,1.73472347597681e-18,-1.89166390282945
27.5625,2.16840434497101e-19,8.67361737988404e-19,-1.86836749009558
27.625,2.16840434497101e-19,8.67361737988404e-19,-1.79906632137978
27.6875,6.50521303491303e-19,8.67361737988404e-19,-1.68546639798359
27.75,4.33680868994202e-19,4.33680868994202e-19,-1.5303644817539
27.8125,1.0842021724855e-19,4.33680868994202e-19,-1.33757929747608
27.875,2.16840434497101e-19,0,-1.11185756212492
27.9375,2.16840434497101e-19,4.33680868994202e-19,-0.858757146211134
28,1.0842021724855e-19,0,-0.584510238474617
28.0625,1.0842021724855e-19,2.16840434497101e-19,-0.295869881262872
28.125,-6.61744490042422e-24,0,5.63427067935392e-05
28.1875,-1.0842021724855e-19,0,0.295981371635008
28.25,-1.62630325872826e-19,-2.16840434497101e-19,0.584618155435212
28.3125,-1.0842021724855e-19,-2.16840434497101e-19,0.858859147132116
28.375,-2.16840434497101e-19,-4.33680868994202e-19,1.11195136608875
28.4375,-2.16840434497101e-19,-4.33680868994202e-19,1.33766271483986
28.5,-5.42101086242752e-19,-4.33680868994202e-19,1.5304354492883
28.5625,-4.33680868994202e-19,-8.67361737988404e-19,1.68552302163896
28.625,-4.33680868994202e-19,0,1.79910692830236
28.6875,-6.50521303491303e-19,-8.67361737988404e-19,1.86839069042023
28.75,-6.50521303491303e-19,-8.67361737988404e-19,1.89166865998302
28.8125,-4.33680868994202e-19,-1.73472347597681e-18,1.86836796549934
28.875,-4.33680868994202e-19,-8.67361737988404e-19,1.79906257240938
28.9375,-4.33680868994202e-19,-4.33680868994202e-19,1.68545911869215
29,-3.25260651745651e-19,-1.30104260698261e-18,1.53035487876843
29.0625,-2.16840434497101e-19,-4.33680868994202e-19,1.33756889217677
29.125,-2.16840434497101e-19,-8.67361737988404e-19,1.11184795122722
29.1875,-2.16840434497101e-19,-4.33680868994202e-19,0.858749758188291
29.25,-1.0842021724855e-19,0,0.584506122757181
29.3125,-5.42101086242752e-20,-1.0842021724855e-19,0.295869561082483
29.375,1.32348898008484e-23,2.64697796016969e-23,-5.29335102385782e-05
29.4375,8.13151629364128e-20,1.0842021724855e-19,-0.295974860827534
29.5,1.0842021724855e-19,2.16840434497101e-19,-0.584609620568394
29.5625,2.16840434497101e-19,2.16840434497101e-19,-0.858849939123653
29.625,2.16840434497101e-19,8.67361737988404e-19,-1.11194289681511
29.6875,3.25260651745651e-19,0,-1.33765624192622
29.75,2.16840434497101e-19,8.67361737988404e-19,-1.53043189070531
29.8125,4.33680868994202e-19,8.67361737988404e-19,-1.68552282722477
29.875,6.50521303491303e-19,8.67361737988404e-19,-1.79911002590891
29.9375,2.16840434497101e-19,0,-1.86839651256981
30,4.33680868994202e-19,0,-1.89167624457729
30.0625,6.50521303491303e-19,8.67361737988404e-19,-1.86837611312594
30.125,2.16840434497101e-19,0,-1.79907003476533
30.1875,6.50521303491303e-19,8.67361737988404e-19,-1.6854647887092
30.25,2.16840434497101e-19,8.67361737988404e-19,-1.53035795365657
30.3125,3.25260651745651e-19,4.33680868994202e-19,-1.33756898556293
30.375,2.16840434497101e-19,4.33680868994202e-19,-1.1118451389787
30.4375,2.16840434497101e-19,2.16840434497101e-19,-0.858744552996978
30.5,5.42101086242752e-20,4.33680868994202e-19,-0.584499383476065
30.5625,8.13151629364128e-20,0,-0.295862352484248
30.625,-1.98523347012727e-23,0,5.95078617629349e-05
30.6875,-2.71050543121376e-20,-2.16840434497101e-19,0.295979826523819
30.75,-5.42101086242752e-20,0,0.584612275716514
30.8125,-3.25260651745651e-19,-4.33680868994202e-19,0.858849952195431
30.875,-2.16840434497101e-19,-8.67361737988404e-19,1.11194034557151
30.9375,-5.42101086242752e-19,-8.67361737988404e-19,1.33765158931405
31,-5.42101086242752e-19,-4.33680868994202e-19,1.53042590326935
31.0625,-4.33680868994202e-19,-4.33680868994202e-19,1.68551645010116
31.125,-4.33680868994202e-19,0,1.79910423460176
31.1875,-6.50521303491303e-19,-1.73472347597681e-18,1.86839216461144
31.25,-2.16840434497101e-19,-8.67361737988404e-19,1.89167395349378
31.3125,-4.33680868994202e-19,-8.67361737988404e-19,1.86837616308209
31.375,-4.33680868994202e-19,-1.73472347597681e-18,1.79907234756005
31.4375,-4.33680868994202e-19,-4.33680868994202e-19,1.68546894652982
31.5,-5.42101086242752e-19,-1.30104260698261e-18,1.53036327247002
31.5625,-3.25260651745651e-19,-4.33680868994202e-19,1.33757462652468
31.625,-2.16840434497101e-19,-4.33680868994202e-19,1.11185023987557
31.6875,-2.16840434497101e-19,-4.33680868994202e-19,0.858748359254333
31.75,-1.62630325872826e-19,-2.16840434497101e-19,0.584501358944303
31.8125,-5.42101086242752e-20,0,0.295862253872904
31.875,6.61744490042422e-24,2.64697796016969e-23,-6.1603055215592e-05
31.9375,2.71050543121376e-20,2.16840434497101e-19,-0.295983541407427
32,2.16840434497101e-19,2.16840434497101e-19,-0.584616999996529
32.0625,2.16840434497101e-19,4.33680868994202e-19,-0.858854941451347
32.125,3.25260651745651e-19,0,-1.11194483780475
32.1875,2.16840434497101e-19,4.33680868994202e-19,-1.33765492063513
32.25,3.25260651745651e-19,4.33680868994202e-19,-1.53042760526783
32.3125,4.33680868994202e-19,4.33680868994202e-19,-1.68551631473462
32.375,2.16840434497101e-19,8.67361737988404e-19,-1.79910233777816
32.4375,2.16840434497101e-19,0,-1.86838884614833
32.5,2.16840434497101e-19,8.67361737988404e-19,-1.89166975779869
32.5625,2.16840434497101e-19,8.67361737988404e-19,-1.8683717507043
32.625,4.33680868994202e-19,8.67361737988404e-19,-1.79906839186002
32.6875,2.16840434497101e-19,4.33680868994202e-19,-1.68546603153082
32.75,3.25260651745651e-19,1.30104260698261e-18,-1.53036180729379
32.8125,2.16840434497101e-19,0,-1.33757478884118
32.875,2.16840434497101e-19,4.33680868994202e-19,-1.11185195603771
32.9375,3.25260651745651e-19,2.16840434497101e-19,-0.858751323012656
33,1.0842021724855e-19,0,-0.584505084748816
33.0625,2.71050543121376e-20,0,-0.295866155662648
33.125,-1.98523347012727e-23,0,5.81202497884427e-05
33.1875,-5.42101086242752e-20,-1.0842021724855e-19,0.295980991280872
33.25,-5.42101086242752e-20,-2.16840434497101e-19,0.584615739789226
33.3125,-2.16840434497101e-19,-2.16840434497101e-19,0.858855122683047
33.375,-2.16840434497101e-19,-4.33680868994202e-19,1.11194638958496
33.4375,-2.16840434497101e-19,-4.33680868994202e-19,1.33765756708845
33.5,-3.25260651745651e-19,-1.30104260698261e-18,1.53043091341199
33.5625,-4.33680868994202e-19,-4.33680868994202e-19,1.68551976465644
33.625,-4.33680868994202e-19,-8.67361737988404e-19,1.79910540382904
33.6875,-2.16840434497101e-19,0,1.86839107655609
33.75,-4.33680868994202e-19,-1.73472347597681e-18,1.89167084071198
33.8125,-4.33680868994202e-19,-8.67361737988404e-19,1.86837155709855
33.875,-4.33680868994202e-19,-8.67361737988404e-19,1.79906698951869
33.9375,-4.33680868994202e-19,-4.33680868994202e-19,1.68546366886189
34,-3.25260651745651e-19,-8.67361737988404e-19,1.53035887033804
34.0625,-2.16840434497101e-19,-4.33680868994202e-19,1.33757173877814
34.125,-1.0842021724855e-19,-4.33680868994202e-19,1.11184925722193
34.1875,-2.16840434497101e-19,-6.50521303491303e-19,0.858749372702607
34.25,-5.42101086242752e-20,-2.16840434497101e-19,0.584504155095689
34.3125,-1.0842021724855e-19,-1.0842021724855e-19,0.295866356357446
34.375,1.98523347012727e-23,0,-5.68536504230414e-05
34.4375,5.42101086242752e-20,0,-0.295978882360238
34.5,1.62630325872826e-19,-2.16840434497101e-19,-0.584613132679191
34.5625,2.16840434497101e-19,2.16840434497101e-19,-0.858852426418512
34.625,2.16840434497101e-19,4.33680868994202e-19,-1.11194401432977
34.6875,3.25260651745651e-19,8.67361737988404e-19,-1.33765586211542
34.75,4.33680868994202e-19,8.67361737988404e-19,-1.53043011615651
34.8125,4.33680868994202e-19,0,-1.68551996820942
34.875,4.33680868994202e-19,8.67361737988404e-19,-1.79910654722462
34.9375,4.33680868994202e-19,0,-1.86839295863447
35,4.33680868994202e-19,8.67361737988404e-19,-1.8916731547508
35.0625,6.50521303491303e-19,8.67361737988404e-19,-1.86837394035209
35.125,4.33680868994202e-19,8.67361737988404e-19,-1.7990690797286
35.1875,4.33680868994202e-19,0,-1.68546515898889
35.25,2.16840434497101e-19,4.33680868994202e-19,-1.53035955329673
35.3125,2.16840434497101e-19,4.33680868994202e-19,-1.33757153571633
35.375,3.25260651745651e-19,0,-1.11184822556695
35.4375,2.16840434497101e-19,2.16840434497101e-19,-0.858747693369913
35.5,1.0842021724855e-19,0,-0.584502101421222
35.5625,1.35525271560688e-19,2.16840434497101e-19,-0.295864250000494
35.625,-1.32348898008484e-23,0,5.86927764557667e-05
35.6875,-8.13151629364128e-20,-2.16840434497101e-19,0.295980184382261
35.75,-1.62630325872826e-19,2.16840434497101e-19,0.584613717038476
35.8125,-1.0842021724855e-19,-2.16840434497101e-19,0.858852226462412
35.875,-2.16840434497101e-19,-4.33680868994202e-19,1.11194308394681
35.9375,-4.33680868994202e-19,-4.33680868994202e-19,1.3376543639539
36,-2.16840434497101e-19,-8.67361737988404e-19,1.53042829376152
36.0625,-6.50521303491303e-19,-4.33680868994202e-19,1.68551810677572
36.125,-4.33680868994202e-19,-8.67361737988404e-19,1.79910492923983
36.1875,-4.33680868994202e-19,-8.67361737988404e-19,1.86839182126949
36.25,-4.33680868994202e-19,-1.73472347597681e-18,1.89167265538518
36.3125,-4.33680868994202e-19,-8.67361737988404e-19,1.868374135198
36.375,-4.33680868994202e-19,0,1.79906991838897
36.4375,-4.33680868994202e-19,-4.33680868994202e-19,1.68546649529115
36.5,-4.33680868994202e-19,-8.67361737988404e-19,1.5303611702734
36.5625,-3.25260651745651e-19,0,1.33757318053099
36.625,-2.16840434497101e-19,-8.67361737988404e-19,1.11184964880671
36.6875,-2.16840434497101e-19,-4.33680868994202e-19,0.858748686634511
36.75,-1.62630325872826e-19,-2.16840434497101e-19,0.58450252757997
36.8125,-2.71050543121376e-20,-1.0842021724855e-19,0.295864061765007
36.875,1.32348898008484e-23,2.64697796016969e-23,-5.9448417014367e-05
36.9375,5.42101086242752e-20,2.16840434497101e-19,-0.295981376107573
37,5.42101086242752e-20,2.16840434497101e-19,-0.584615151587965
37.0625,2.16840434497101e-19,2.16840434497101e-19,-0.858853679711486
37.125,2.16840434497101e-19,4.33680868994202e-19,-1.1119443357087
37.1875,2.16840434497101e-19,4.33680868994202e-19,-1.33765523113667
37.25,2.16840434497101e-19,8.67361737988404e-19,-1.53042865691852
37.3125,2.16840434497101e-19,4.33680868994202e-19,-1.68551792623601
37.375,2.16840434497101e-19,0,-1.79910424869603
37.4375,4.33680868994202e-19,8.67361737988404e-19,-1.86839075865875
37.5,2.16840434497101e-19,8.67361737988404e-19,-1.89167138282523
37.5625,2.16840434497101e-19,8.67361737988404e-19,-1.86837285134076
37.625,2.16840434497101e-19,0,-1.79906881759849
37.6875,6.50521303491303e-19,4.33680868994202e-19,-1.6854657383996
37.75,3.25260651745651e-19,4.33680868994202e-19,-1.53036086128739
37.8125,2.16840434497101e-19,4.33680868994202e-19,-1.33757335262849
37.875,3.25260651745651e-19,4.33680868994202e-19,-1.11185026146074
37.9375,1.0842021724855e-19,2.16840434497101e-19,-0.858749633961744
38,5.42101086242752e-20,2.16840434497101e-19,-0.584503656315177
38.0625,2.71050543121376e-20,0,-0.295865195853269
38.125,-1.98523347012727e-23,0,5.84805265804077e-05
38.1875,-5.42101086242752e-20,-1.0842021724855e-19,0.295980715671606
38.25,-2.16840434497101e-19,-2.16840434497101e-19,0.584614889136201
38.3125,-3.25260651745651e-19,-6.50521303491303e-19,0.858853842896011
38.375,-3.25260651745651e-19,-8.67361737988404e-19,1.11194488702272
38.4375,-3.25260651745651e-19,-8.67361737988404e-19,1.33765607554914
38.5,-6.50521303491303e-19,-4.33680868994202e-19,1.53042965797206
38.5625,-2.16840434497101e-19,-4.33680868994202e-19,1.68551892791896
38.625,-6.50521303491303e-19,-8.67361737988404e-19,1.7991050996099
38.6875,-4.33680868994202e-19,-1.73472347597681e-18,1.86839133475922
38.75,-6.50521303491303e-19,-1.73472347597681e-18,1.8916716053428
38.8125,-6.50521303491303e-19,-8.67361737988404e-19,1.8683726973184
38.875,-6.50521303491303e-19,-1.73472347597681e-18,1.7990683216766
38.9375,-4.33680868994202e-19,-8.67361737988404e-19,1.6854649858428
39,-3.25260651745651e-19,-8.67361737988404e-19,1.53035997357104
39.0625,-3.25260651745651e-19,0,1.33757246798793
39.125,-2.16840434497101e-19,0,1.11184951349442
39.1875,-4.33680868994202e-19,-2.16840434497101e-19,0.858749131581446
39.25,-1.62630325872826e-19,0,0.584503468031499
39.3125,-1.0842021724855e-19,-1.0842021724855e-19,0.295865340641417
39.375,1.32348898008484e-23,2.64697796016969e-23,-5.80345997610399e-05
39.4375,8.13151629364128e-20,0,-0.295980045085128
39.5,1.0842021724855e-19,2.16840434497101e-19,-0.584614102012613
39.5625,2.16840434497101e-19,6.50521303491303e-19,-0.858853061706424
39.625,2.16840434497101e-19,-4.33680868994202e-19,-1.11194422964538
39.6875,2.16840434497101e-19,0,-1.33765563759379
39.75,3.25260651745651e-19,8.67361737988404e-19,-1.53042949900265
39.8125,2.16840434497101e-19,4.33680868994202e-19,-1.68551906354011
39.875,6.50521303491303e-19,8.67361737988404e-19,-1.7991055004352
39.9375,6.50521303491303e-19,1.73472347597681e-18,-1.86839193221025
40,4.33680868994202e-19,0,-1.89167230319561
40.0625,4.33680868994202e-19,8.67361737988404e-19,-1.86837338707984
40.125,4.33680868994202e-19,0,-1.79906889935057
40.1875,2.16840434497101e-19,4.33680868994202e-19,-1.68546536751105
40.25,5.42101086242752e-19,4.33680868994202e-19,-1.5303601074693
40.3125,4.33680868994202e-19,8.67361737988404e-19,-1.33757234135822
40.375,2.16840434497101e-19,0,-1.11184915333639
40.4375,2.16840434497101e-19,4.33680868994202e-19,-0.858748599371903
40.5,1.0842021724855e-19,2.16840434497101e-19,-0.58450284939295
40.5625,5.42101086242752e-20,0,-0.295864731674049
40.625,-1.32348898008484e-23,-2.64697796016969e-23,5.85421574977132e-05
40.6875,-1.0842021724855e-19,-1.0842021724855e-19,0.295980377589024
40.75,-2.16840434497101e-19,-2.16840434497101e-19,0.584614214495932
40.8125,-1.0842021724855e-19,-2.16840434497101e-19,0.858852943810297
40.875,-3.25260651745651e-19,-4.33680868994202e-19,1.11194390613967
40.9375,-3.25260651745651e-19,-4.33680868994202e-19,1.33765516357347
41,-4.33680868994202e-19,-4.33680868994202e-19,1.53042895064648
41.0625,-4.33680868994202e-19,-4.33680868994202e-19,1.68551852596197
41.125,-2.16840434497101e-19,-8.67361737988404e-19,1.79910505455138
41.1875,-4.33680868994202e-19,0,1.86839164263767
41.25,-4.33680868994202e-19,0,1.89167220897856
41.3125,-2.16840434497101e-19,0,1.86837349656116
41.375,-4.33680868994202e-19,-8.67361737988404e-19,1.79906918983738
41.4375,-4.33680868994202e-19,0,1.6854657896408
41.5,-2.16840434497101e-19,-4.33680868994202e-19,1.53036059347467
41.5625,-3.25260651745651e-19,-4.33680868994202e-19,1.33757281586389
41.625,-2.16840434497101e-19,-4.33680868994202e-19,1.11184954497974
41.6875,-1.0842021724855e-19,-2.16840434497101e-19,0.858748851466414
41.75,-1.0842021724855e-19,-4.33680868994202e-19,0.584502928052372
41.8125,-8.13151629364128e-20,-1.0842021724855e-19,0.295864630245138
41.875,1.32348898008484e-23,-2.64697796016969e-23,-5.88029111611822e-05
41.9375,8.13151629364128e-20,2.16840434497101e-19,-0.295980753452854
42,2.16840434497101e-19,2.16840434497101e-19,-0.584614645193505
42.0625,2.16840434497101e-19,4.33680868994202e-19,-0.858853362597433
42.125,3.25260651745651e-19,4.33680868994202e-19,-1.11194425008666
42.1875,2.16840434497101e-19,4.33680868994202e-19,-1.33765538295982
42.25,2.16840434497101e-19,4.33680868994202e-19,-1.53042901607667
42.3125,2.16840434497101e-19,1.30104260698261e-18,-1.68551843219418
42.375,2.16840434497101e-19,8.67361737988404e-19,-1.79910482056077
42.4375,4.33680868994202e-19,0,-1.86839130801793
42.5,6.50521303491303e-19,8.67361737988404e-19,-1.89167182733611
42.5625,6.50521303491303e-19,0,-1.86837312699086
42.625,4.33680868994202e-19,8.67361737988404e-19,-1.79906888782625
42.6875,4.33680868994202e-19,4.33680868994202e-19,-1.68546559879138
42.75,3.25260651745651e-19,4.33680868994202e-19,-1.53036053927435
42.8125,3.25260651745651e-19,8.67361737988404e-19,-1.33757290237967
42.875,2.16840434497101e-19,0,-1.11184975489012
42.9375,1.0842021724855e-19,2.16840434497101e-19,-0.858749149324703
43,2.16840434497101e-19,4.33680868994202e-19,-0.584503266190485
43.0625,5.42101086242752e-20,2.16840434497101e-19,-0.29586495634637
43.125,-1.98523347012727e-23,0,5.85377657643499e-05
43.1875,-5.42101086242752e-20,-1.0842021724855e-19,0.295980587493745
43.25,-5.42101086242752e-20,-2.16840434497101e-19,0.584614600507892
43.3125,-1.0842021724855e-19,-4.33680868994202e-19,0.85885344227837
43.375,-3.25260651745651e-19,0,1.11194443833913
43.4375,-3.25260651745651e-19,0,1.33765564805755
43.5,-2.16840434497101e-19,-4.33680868994202e-19,1.53042931563754
43.5625,-4.33680868994202e-19,-8.67361737988404e-19,1.68551871990692
43.625,-4.33680868994202e-19,0,1.7991050533023
43.6875,-4.33680868994202e-19,-8.67361737988404e-19,1.86839145227423
43.75,-2.16840434497101e-19,-8.67361737988404e-19,1.89167186397685
43.8125,-6.50521303491303e-19,-8.67361737988404e-19,1.86837305372649
43.875,-2.16840434497101e-19,-8.67361737988404e-19,1.79906871904577
43.9375,-4.33680868994202e-19,-8.67361737988404e-19,1.68546536288436
44,-1.0842021724855e-19,-4.33680868994202e-19,1.53036027391809
44.0625,-2.16840434497101e-19,-4.33680868994202e-19,1.33757264856495
44.125,-2.16840434497101e-19,-4.33680868994202e-19,1.1118495506263
44.1875,-2.16840434497101e-19,-4.33680868994202e-19,0.858749023985892
44.25,-1.62630325872826e-19,-4.33680868994202e-19,0.584503236336699
44.3125,-5.42101086242752e-20,-1.0842021724855e-19,0.295865023607269
44.375,1.98523347012727e-23,2.64697796016969e-23,-5.83864857335651e-05
44.4375,5.42101086242752e-20,1.0842021724855e-19,-0.295980377592288
44.5,5.42101086242752e-20,2.16840434497101e-19,-0.584614365475765
44.5625,0,2.16840434497101e-19,-0.858853218393215
44.625,3.25260651745651e-19,4.33680868994202e-19,-1.11194425909918
44.6875,2.16840434497101e-19,0,-1.33765553920312
44.75,3.25260651745651e-19,4.33680868994202e-19,-1.53042929149502
44.8125,4.33680868994202e-19,4.33680868994202e-19,-1.68551878156833
44.875,2.16840434497101e-19,0,-1.79910518885956
44.9375,4.33680868994202e-19,8.67361737988404e-19,-1.86839163901106
45,2.16840434497101e-19,8.67361737988404e-19,-1.89167207212806
45.0625,4.33680868994202e-19,8.67361737988404e-19,-1.86837325118892
45.125,6.50521303491303e-19,8.67361737988404e-19,-1.79906887630048
45.1875,2.16840434497101e-19,8.67361737988404e-19,-1.68546545737966
45.25,3.25260651745651e-19,8.67361737988404e-19,-1.53036029326739
45.3125,2.16840434497101e-19,0,-1.33757259211206
45.375,2.16840434497101e-19,0,-1.11184942919028
45.4375,2.16840434497101e-19,2.16840434497101e-19,-0.858748857879906
45.5,1.0842021724855e-19,0,-0.584503052011548
45.5625,1.0842021724855e-19,1.0842021724855e-19,-0.295864849469082
45.625,-6.61744490042422e-24,0,5.85244277007928e-05
45.6875,-8.13151629364128e-20,-1.0842021724855e-19,0.295980459584032
45.75,-1.0842021724855e-19,-2.16840434497101e-19,0.584614380814786
45.8125,-2.16840434497101e-19,-4.33680868994202e-19,0.858853166773024
45.875,-2.16840434497101e-19,-4.33680868994202e-19,1.1119441503415
45.9375,-2.16840434497101e-19,-4.33680868994202e-19,1.33765539146851
46,-6.50521303491303e-19,0,1.53042912828615
46.0625,-4.33680868994202e-19,-4.33680868994202e-19,1.68551862801712
46.125,-4.33680868994202e-19,-8.67361737988404e-19,1.79910506788008
46.1875,-4.33680868994202e-19,-8.67361737988404e-19,1.86839156790327
46.25,-2.16840434497101e-19,0,1.89167206013304
46.3125,-8.67361737988404e-19,-8.67361737988404e-19,1.86837329833545
46.375,-2.16840434497101e-19,0,1.79906897367862
46.4375,-4.33680868994202e-19,-4.33680868994202e-19,1.68546558875726
46.5,-1.0842021724855e-19,-4.33680868994202e-19,1.53036043776383
46.5625,-2.16840434497101e-19,-4.33680868994202e-19,1.33757272749439
46.625,-2.16840434497101e-19,-4.33680868994202e-19,1.11184953527391
46.6875,-3.25260651745651e-19,-2.16840434497101e-19,0.858748919517093
46.75,-2.16840434497101e-19,-2.16840434497101e-19,0.584503061228868
46.8125,-8.13151629364128e-20,-1.0842021724855e-19,0.295864806455498
46.875,1.98523347012727e-23,5.29395592033938e-23,-5.86115954646304e-05
46.9375,8.13151629364128e-20,1.0842021724855e-19,-0.295980576400245
47,1.62630325872826e-19,4.33680868994202e-19,-0.584614508730741
47.0625,2.16840434497101e-19,2.16840434497101e-19,-0.858853286122361
47.125,3.25260651745651e-19,8.67361737988404e-19,-1.11194424334618
47.1875,2.16840434497101e-19,4.33680868994202e-19,-1.33765544486822
47.25,3.25260651745651e-19,8.67361737988404e-19,-1.53042913520616
47.3125,2.16840434497101e-19,4.33680868994202e-19,-1.68551858881431
47.375,6.50521303491303e-19,8.67361737988404e-19,-1.79910498987097
47.4375,4.33680868994202e-19,8.67361737988404e-19,-1.86839146404816
47.5,2.16840434497101e-19,8.67361737988404e-19,-1.89167194690707
47.5625,4.33680868994202e-19,0,-1.86837319313269
47.625,4.33680868994202e-19,8.67361737988404e-19,-1.79906889215575
47.6875,2.16840434497101e-19,8.67361737988404e-19,-1.68546554251975
47.75,4.33680868994202e-19,8.67361737988404e-19,-1.53036043273446
47.8125,2.16840434497101e-19,4.33680868994202e-19,-1.33757276318952
47.875,3.25260651745651e-19,4.33680868994202e-19,-1.11184960507022
47.9375,2.16840434497101e-19,4.33680868994202e-19,-0.858749011837293
48,1.0842021724855e-19,2.16840434497101e-19,-0.58450316144134
48.0625,5.42101086242752e-20,0,-0.295864899177539
48.125,-1.32348898008484e-23,0,5.85401506510652e-05
48.1875,-5.42101086242752e-20,-1.0842021724855e-19,0.295980536387402
48.25,-1.62630325872826e-19,-2.16840434497101e-19,0.584614505248147
48.3125,-1.0842021724855e-19,-4.33680868994202e-19,0.85885331859413
48.375,-3.25260651745651e-19,0,1.11194430577983
48.4375,-2.16840434497101e-19,-4.33680868994202e-19,1.33765552692407
48.5,-1.0842021724855e-19,-4.33680868994202e-19,1.53042922389147
48.5625,-4.33680868994202e-19,-4.33680868994202e-19,1.68551867052639
48.625,-6.50521303491303e-19,0,1.7991050524715
48.6875,-4.33680868994202e-19,-8.67361737988404e-19,1.86839149865343
48.75,-4.33680868994202e-19,-8.67361737988404e-19,1.89167194913223
48.8125,-4.33680868994202e-19,0,1.86837316361868
48.875,-2.16840434497101e-19,0,1.79906883632075
48.9375,-2.16840434497101e-19,-8.67361737988404e-19,1.68546546959614
49,-5.42101086242752e-19,0,1.53036035425866
49.0625,-3.25260651745651e-19,-4.33680868994202e-19,1.33757269118866
49.125,-2.16840434497101e-19,-4.33680868994202e-19,1.11184955023004
49.1875,-3.25260651745651e-19,-4.33680868994202e-19,0.858748981927656
49.25,-1.0842021724855e-19,-6.50521303491303e-19,0.584503160229865
49.3125,-8.13151629364128e-20,-1.0842021724855e-19,0.295864925981308
49.375,1.98523347012727e-23,5.29395592033938e-23,-5.84902278487107e-05
49.4375,2.71050543121376e-20,1.0842021724855e-19,-0.295980471587932
49.5,2.16840434497101e-19,2.16840434497101e-19,-0.5846144358139
49.5625,3.25260651745651e-19,2.16840434497101e-19,-0.858853255158115
49.625,1.0842021724855e-19,4.33680868994202e-19,-1.11194425774777
49.6875,2.16840434497101e-19,4.33680868994202e-19,-1.33765550109003
49.75,5.42101086242752e-19,8.67361737988404e-19,-1.53042922348966
49.8125,4.33680868994202e-19,8.67361737988404e-19,-1.68551869485006
49.875,6.50521303491303e-19,8.67361737988404e-19,-1.79910509709844
49.9375,4.33680868994202e-19,0,-1.86839155622671
50,4.33680868994202e-19,8.67361737988404e-19,-1.89167201056035
50.0625,2.16840434497101e-19,0,-1.86837321950198
50.125,2.16840434497101e-19,0,-1.79906887838116
50.1875,4.33680868994202e-19,4.33680868994202e-19,-1.68546549189452
50.25,4.33680868994202e-19,8.67361737988404e-19,-1.53036035402153
50.3125,3.25260651745651e-19,4.33680868994202e-19,-1.33757266913196
50.375,3.25260651745651e-19,0,-1.11184951034554
50.4375,3.25260651745651e-19,2.16840434497101e-19,-0.858748930781118
50.5,1.0842021724855e-19,4.33680868994202e-19,-0.584503105890537
50.5625,1.0842021724855e-19,1.0842021724855e-19,-0.295864876757624
50.625,-1.32348898008484e-23,-2.64697796016969e-23,5.85270513283672e-05
50.6875,-8.13151629364128e-20,-1.0842021724855e-19,0.295980490820555
50.75,-2.16840434497101e-19,0,0.584614435079875
50.8125,-2.16840434497101e-19,-4.33680868994202e-19,0.858853235171036
50.875,-2.16840434497101e-19,-4.33680868994202e-19,1.11194422210924
50.9375,-3.25260651745651e-19,-8.67361737988404e-19,1.33765545565832
51,-3.25260651745651e-19,-4.33680868994202e-19,1.53042917542614
51.0625,-4.33680868994202e-19,-4.33680868994202e-19,1.68551865149771
51.125,-6.50521303491303e-19,-8.67361737988404e-19,1.79910506486679
51.1875,-6.50521303491303e-19,-8.67361737988404e-19,1.86839153965114
51.25,-6.50521303491303e-19,0,1.89167201167334
51.3125,-4.33680868994202e-19,-8.67361737988404e-19,1.86837323760151
51.375,-4.33680868994202e-19,-8.67361737988404e-19,1.79906891021929
51.4375,-4.33680868994202e-19,-4.33680868994202e-19,1.68546553224507
51.5,-5.42101086242752e-19,-8.67361737988404e-19,1.53036039652957
51.5625,-4.33680868994202e-19,-4.33680868994202e-19,1.33757270730841
51.625,-3.25260651745651e-19,0,1.11184953855174
51.6875,-2.16840434497101e-19,-4.33680868994202e-19,0.858748945055233
51.75,-5.42101086242752e-20,0,0.584503104495876
51.8125,-1.0842021724855e-19,-1.0842021724855e-19,0.295864860377752
51.875,1.32348898008484e-23,2.64697796016969e-23,-5.85554885432249e-05
51.9375,8.13151629364128e-20,1.0842021724855e-19,-0.295980526653852
52,2.16840434497101e-19,4.33680868994202e-19,-0.584614472670681
52.0625,1.0842021724855e-19,2.16840434497101e-19,-0.858853268785303
52.125,3.25260651745651e-19,0,-1.11194424678721
52.1875,2.16840434497101e-19,8.67361737988404e-19,-1.33765546794004
52.25,3.25260651745651e-19,0,-1.53042917382962
52.3125,6.50521303491303e-19,4.33680868994202e-19,-1.68551863668324
52.375,4.33680868994202e-19,0,-1.79910503947203
52.4375,2.16840434497101e-19,0,-1.86839150783313
52.5,4.33680868994202e-19,0,-1.89167197843449
52.5625,4.33680868994202e-19,0,-1.8683732080079
52.625,6.50521303491303e-19,8.67361737988404e-19,-1.79906888863326
52.6875,4.33680868994202e-19,8.67361737988404e-19,-1.68546552168711
52.75,5.42101086242752e-19,4.33680868994202e-19,-1.53036039826251
52.8125,3.25260651745651e-19,4.33680868994202e-19,-1.33757272069937
52.875,2.16840434497101e-19,0,-1.11184956122518
52.9375,1.0842021724855e-19,2.16840434497101e-19,-0.858748973304418
53,2.16840434497101e-19,4.33680868994202e-19,-0.584503133883572
53.0625,1.0842021724855e-19,2.16840434497101e-19,-0.295864886428209
53.125,-6.61744490042422e-24,-2.64697796016969e-23,5.85366114764526e-05
53.1875,-8.13151629364128e-20,-1.0842021724855e-19,0.295980517586424
53.25,-1.62630325872826e-19,-4.33680868994202e-19,0.584614474487246
53.3125,-3.25260651745651e-19,-2.16840434497101e-19,0.858853280882763
53.375,-3.25260651745651e-19,-4.33680868994202e-19,1.11194426702707
53.4375,-1.0842021724855e-19,-4.33680868994202e-19,1.33765549301786
53.5,-3.25260651745651e-19,-4.33680868994202e-19,1.53042919980957
53.5625,-4.33680868994202e-19,-4.33680868994202e-19,1.68551865961176
53.625,-2.16840434497101e-19,-8.67361737988404e-19,1.79910505597615
53.6875,-6.50521303491303e-19,-1.73472347597681e-18,1.8683915156126
53.75,-4.33680868994202e-19,-8.67361737988404e-19,1.89167197657691
53.8125,-6.50521303491303e-19,-8.67361737988404e-19,1.86837319708485
53.875,-4.33680868994202e-19,0,1.79906887056911
53.9375,-2.16840434497101e-19,-8.67361737988404e-19,1.68546549942727
54,-4.33680868994202e-19,-4.33680868994202e-19,1.53036037529764
54.0625,-4.33680868994202e-19,-1.30104260698261e-18,1.33757270052139
54.125,-2.16840434497101e-19,0,1.11184954679921
54.1875,-1.0842021724855e-19,-2.16840434497101e-19,0.858748966637176
54.25,-2.71050543121376e-19,-2.16840434497101e-19,0.58450313574843
54.3125,-2.71050543121376e-20,-1.0842021724855e-19,0.29586489628581
54.375,1.98523347012727e-23,2.64697796016969e-23,-5.85204921212893e-05
54.4375,8.13151629364128e-20,1.0842021724855e-19,-0.295980497830128
54.5,1.62630325872826e-19,2.16840434497101e-19,-0.584614454189629
54.5625,2.16840434497101e-19,4.33680868994202e-19,-0.858853263127595
54.625,3.25260651745651e-19,4.33680868994202e-19,-1.11194425442086
54.6875,2.16840434497101e-19,4.33680868994202e-19,-1.33765548731037
54.75,2.16840434497101e-19,4.33680868994202e-19,-1.53042920165505
54.8125,2.16840434497101e-19,4.33680868994202e-19,-1.68551866850344
54.875,4.33680868994202e-19,8.67361737988404e-19,-1.79910507035761
54.9375,4.33680868994202e-19,8.67361737988404e-19,-1.86839153314477
55,4.33680868994202e-19,8.67361737988404e-19,-1.89167199451514
55.0625,6.50521303491303e-19,8.67361737988404e-19,-1.86837321270596
55.125,2.16840434497101e-19,0,-1.79906888158229
55.1875,4.33680868994202e-19,4.33680868994202e-19,-1.68546550430722
55.25,5.42101086242752e-19,8.67361737988404e-19,-1.53036037349192
55.3125,4.33680868994202e-19,4.33680868994202e-19,-1.33757269250473
55.375,1.0842021724855e-19,4.33680868994202e-19,-1.11184953397059
55.4375,3.25260651745651e-19,4.33680868994202e-19,-0.858748951080489
55.5,1.0842021724855e-19,2.16840434497101e-19,-0.584503119896925
55.5625,5.42101086242752e-20,-1.0842021724855e-19,-0.295864882544072
55.625,-1.98523347012727e-23,-2.64697796016969e-23,5.85301110040173e-05
55.6875,-8.13151629364128e-20,0,0.295980501997035
55.75,-1.0842021724855e-19,0,0.584614452439335
55.8125,-1.0842021724855e-19,-4.33680868994202e-19,0.858853255903266
55.875,-2.16840434497101e-19,0,1.1119442429793
55.9375,-2.16840434497101e-19,0,1.33765547350812
56,-5.42101086242752e-19,-4.33680868994202e-19,1.53042918764918
56.0625,-4.33680868994202e-19,-4.33680868994202e-19,1.68551865641668
56.125,-4.33680868994202e-19,-8.67361737988404e-19,1.79910506195875
56.1875,-6.50521303491303e-19,-8.67361737988404e-19,1.86839152959172
56.25,-4.33680868994202e-19,0,1.89167199619862
56.3125,-4.33680868994202e-19,-8.67361737988404e-19,1.86837321921353
56.375,-6.50521303491303e-19,-8.67361737988404e-19,1.79906889178487
56.4375,-2.16840434497101e-19,-4.33680868994202e-19,1.68546551655153
56.5,-4.33680868994202e-19,-4.33680868994202e-19,1.53036038586584
56.5625,-4.33680868994202e-19,-4.33680868994202e-19,1.33757270313435
56.625,-2.16840434497101e-19,-8.67361737988404e-19,1.11184954130215
56.6875,-2.16840434497101e-19,-2.16840434497101e-19,0.858748954105484
56.75,0,-2.16840434497101e-19,0.584503118288305
56.8125,-5.42101086242752e-20,0,0.295864876684703
56.875,1.32348898008484e-23,0,-5.85392073463312e-05
56.9375,1.0842021724855e-19,2.16840434497101e-19,-0.295980512858032
57,1.0842021724855e-19,2.16840434497101e-19,-0.584614463370166
57.0625,2.16840434497101e-19,4.33680868994202e-19,-0.858853265250068
57.125,2.16840434497101e-19,4.33680868994202e-19,-1.11194424937732
57.1875,4.33680868994202e-19,0,-1.33765547607941
57.25,4.33680868994202e-19,8.67361737988404e-19,-1.5304291861207
57.3125,4.33680868994202e-19,4.33680868994202e-19,-1.68551865114309
57.375,4.33680868994202e-19,8.67361737988404e-19,-1.79910505385006
57.4375,4.33680868994202e-19,0,-1.86839151995892
57.5,4.33680868994202e-19,0,-1.89167198654347
57.5625,6.50521303491303e-19,1.73472347597681e-18,-1.86837321099583
57.625,2.16840434497101e-19,0,-1.79906888620318
57.6875,2.16840434497101e-19,4.33680868994202e-19,-1.68546551436979
57.75,4.33680868994202e-19,0,-1.53036038731117
57.8125,3.25260651745651e-19,8.67361737988404e-19,-1.3375727078788
57.875,2.16840434497101e-19,4.33680868994202e-19,-1.11184954852933
57.9375,2.16840434497101e-19,4.33680868994202e-19,-0.858748962648081
58,2.71050543121376e-19,4.33680868994202e-19,-0.584503126815669
58.0625,0,1.0842021724855e-19,-0.295864883908693
58.125,-6.61744490042422e-24,0,5.8534339347034e-05
58.1875,-5.42101086242752e-20,-2.16840434497101e-19,0.295980511010372
58.25,-2.16840434497101e-19,-2.16840434497101e-19,0.584614464730984
58.3125,-1.0842021724855e-19,-2.16840434497101e-19,0.85885326951692
58.375,-3.25260651745651e-19,0,1.11194425581771
58.4375,-4.33680868994202e-19,-1.30104260698261e-18,1.33765548365427
58.5,-3.25260651745651e-19,0,1.53042919365118
58.5625,-4.33680868994202e-19,0,1.68551865749246
58.625,-6.50521303491303e-19,-8.67361737988404e-19,1.7991050580944
58.6875,-6.50521303491303e-19,-8.67361737988404e-19,1.86839152152035
58.75,-4.33680868994202e-19,-8.67361737988404e-19,1.89167198526698
58.8125,-6.50521303491303e-19,-8.67361737988404e-19,1.86837320715998
58.875,-4.33680868994202e-19,-8.67361737988404e-19,1.79906888046489
58.9375,-4.33680868994202e-19,-4.33680868994202e-19,1.68546550765363
59,-5.42101086242752e-19,-4.33680868994202e-19,1.53036038066167
59.0625,-5.42101086242752e-19,0,1.33757270229892
59.125,-2.16840434497101e-19,0,1.11184954482994
59.1875,-3.25260651745651e-19,-2.16840434497101e-19,0.858748961331577
59.25,-1.0842021724855e-19,-2.16840434497101e-19,0.584503128008995
59.3125,-1.0842021724855e-19,-1.0842021724855e-19,0.29586488735586
59.375,1.32348898008484e-23,2.64697796016969e-23,-5.85292273124043e-05
59.4375,5.42101086242752e-20,0,-0.295980505056326
59.5,1.62630325872826e-19,2.16840434497101e-19,-0.584614458860234
59.5625,3.25260651745651e-19,4.33680868994202e-19,-0.858853264614041
59.625,2.16840434497101e-19,4.33680868994202e-19,-1.11194425259441
59.6875,2.16840434497101e-19,4.33680868994202e-19,-1.33765548254708
59.75,5.42101086242752e-19,8.67361737988404e-19,-1.53042919476353
59.8125,4.33680868994202e-19,4.33680868994202e-19,-1.6855186605893
59.875,6.50521303491303e-19,1.73472347597681e-18,-1.79910506264775
59.9375,6.50521303491303e-19,0,-1.86839152679819
60,4.33680868994202e-19,0,-1.89167199044981
60.0625,6.50521303491303e-19,0,-1.86837321146743
60.125,6.50521303491303e-19,0,-1.79906888327235
60.1875,4.33680868994202e-19,8.67361737988404e-19,-1.68546550858218
60.25,3.25260651745651e-19,4.33680868994202e-19,-1.53036037962775
60.3125,2.16840434497101e-19,8.67361737988404e-19,-1.33757269951782
60.375,3.25260651745651e-19,0,-1.11184954077473
60.4375,1.0842021724855e-19,2.16840434497101e-19,-0.85874895665372
60.5,1.62630325872826e-19,4.33680868994202e-19,-0.584503123434063
60.5625,5.42101086242752e-20,1.0842021724855e-19,-0.295864883572175
60.625,-1.32348898008484e-23,-2.64697796016969e-23,5.85316718062211e-05
60.6875,-5.42101086242752e-20,-2.16840434497101e-19,0.295980505832688
60.75,-1.0842021724855e-19,-2.16840434497101e-19,0.584614457901337
60.8125,-1.0842021724855e-19,-4.33680868994202e-19,0.858853262117245
60.875,-3.25260651745651e-19,-8.67361737988404e-19,1.11194424898347
60.9375,-1.0842021724855e-19,-4.33680868994202e-19,1.33765547840136
61,-4.33680868994202e-19,-4.33680868994202e-19,1.53042919072556
61.0625,-4.33680868994202e-19,-4.33680868994202e-19,1.68551865726617
61.125,-2.16840434497101e-19,0,1.79910506052008
61.1875,-4.33680868994202e-19,-8.67361737988404e-19,1.86839152615143
61.25,-2.16840434497101e-19,0,1.89167199133702
61.3125,-4.33680868994202e-19,-8.67361737988404e-19,1.86837321370822
61.375,-6.50521303491303e-19,-8.67361737988404e-19,1.79906888648726
61.4375,-4.33680868994202e-19,-4.33680868994202e-19,1.68546551225595
61.5,-4.33680868994202e-19,-4.33680868994202e-19,1.53036038319124
61.5625,-5.42101086242752e-19,-4.33680868994202e-19,1.33757270243591
61.625,-4.33680868994202e-19,-4.33680868994202e-19,1.11184954262595
61.6875,-2.16840434497101e-19,-4.33680868994202e-19,0.858748957190407
61.75,-1.0842021724855e-19,0,0.584503122614822
61.8125,-5.42101086242752e-20,0,0.295864881561653
61.875,1.98523347012727e-23,5.29395592033938e-23,-5.85345336044684e-05
61.9375,1.0842021724855e-19,1.0842021724855e-19,-0.295980509087782
62,1.0842021724855e-19,4.33680868994202e-19,-0.584614461045879
62.0625,3.25260651745651e-19,2.16840434497101e-19,-0.858853264679266
62.125,2.16840434497101e-19,0,-1.11194425059355
62.1875,2.16840434497101e-19,4.33680868994202e-19,-1.33765547884473
62.25,4.33680868994202e-19,4.33680868994202e-19,-1.53042918997046
62.3125,4.33680868994202e-19,4.33680868994202e-19,-1.68551865546292
62.375,2.16840434497101e-19,8.67361737988404e-19,-1.79910505797284
62.4375,4.33680868994202e-19,8.67361737988404e-19,-1.86839152326755
62.5,6.50521303491303e-19,8.67361737988404e-19,-1.89167198856252
62.5625,2.16840434497101e-19,8.67361737988404e-19,-1.86837321145909
62.625,2.16840434497101e-19,0,-1.79906888508755
62.6875,4.33680868994202e-19,8.67361737988404e-19,-1.6854655118915
62.75,4.33680868994202e-19,4.33680868994202e-19,-1.53036038388599
62.8125,2.16840434497101e-19,4.33680868994202e-19,-1.33757270405285
62.875,3.25260651745651e-19,4.33680868994202e-19,-1.11184954489288
62.9375,1.0842021724855e-19,2.16840434497101e-19,-0.858748959745065
63,1.62630325872826e-19,0,-0.584503125062506
63.0625,5.42101086242752e-20,1.0842021724855e-19,-0.29586488353576
63.125,-1.98523347012727e-23,0,5.85333172381514e-05
63.1875,-2.71050543121376e-20,-1.0842021724855e-19,0.295980508790052
63.25,-5.42101086242752e-20,-2.16840434497101e-19,0.584614461684144
63.3125,-2.16840434497101e-19,0,0.858853266128722
63.375,-3.25260651745651e-19,-4.33680868994202e-19,1.11194425261068
63.4375,-3.25260651745651e-19,-8.67361737988404e-19,1.33765548110759
63.5,-2.16840434497101e-19,-8.67361737988404e-19,1.53042919212974
63.5625,-2.16840434497101e-19,-8.67361737988404e-19,1.68551865719533
63.625,-4.33680868994202e-19,-8.67361737988404e-19,1.79910505902943
63.6875,-8.67361737988404e-19,-1.73472347597681e-18,1.8683915235091
63.75,-2.16840434497101e-19,0,1.8916719879771
63.8125,-2.16840434497101e-19,0,1.86837321016013
63.875,-4.33680868994202e-19,-8.67361737988404e-19,1.79906888329294
63.9375,-4.33680868994202e-19,-8.67361737988404e-19,1.68546550988735
64,-4.33680868994202e-19,-4.33680868994202e-19,1.53036038198152
64.0625,-4.33680868994202e-19,-8.67361737988404e-19,1.33757270253293
64.125,-3.25260651745651e-19,0,1.11184954397543
64.1875,-2.16840434497101e-19,-2.16840434497101e-19,0.858748959550743
64.25,-1.0842021724855e-19,-4.33680868994202e-19,0.584503125598927
64.3125,-1.35525271560688e-19,-2.16840434497101e-19,0.295864884699525
64.375,1.98523347012727e-23,5.29395592033938e-23,-5.85317208478975e-05
64.4375,8.13151629364128e-20,1.0842021724855e-19,-0.295980507015145
64.5,1.0842021724855e-19,2.16840434497101e-19,-0.584614460004529
64.5625,2.16840434497101e-19,2.16840434497101e-19,-0.858853264795309
64.625,2.16840434497101e-19,0,-1.11194425181452
64.6875,4.33680868994202e-19,8.67361737988404e-19,-1.33765548095284
64.75,5.42101086242752e-19,4.33680868994202e-19,-1.53042919262032
64.8125,4.33680868994202e-19,8.67361737988404e-19,-1.68551865823768
64.875,2.16840434497101e-19,0,-1.79910506044939
64.9375,4.33680868994202e-19,8.67361737988404e-19,-1.86839152508068
65,2.16840434497101e-19,8.67361737988404e-19,-1.89167198945821
65.0625,6.50521303491303e-19,0,-1.86837321132968
65.125,4.33680868994202e-19,0,-1.79906888398356
65.1875,2.16840434497101e-19,0,-1.68546551000915
65.25,5.42101086242752e-19,4.33680868994202e-19,-1.53036038153319
65.3125,4.33680868994202e-19,0,-1.3375727015995
65.375,2.16840434497101e-19,4.33680868994202e-19,-1.11184954271261
65.4375,3.25260651745651e-19,2.16840434497101e-19,-0.858748958159272
65.5,5.42101086242752e-20,2.16840434497101e-19,-0.584503124292887
65.5625,1.35525271560688e-19,0,-0.295864883673836
65.625,-1.32348898008484e-23,-2.64697796016969e-23,5.85323196021764e-05
65.6875,-8.13151629364128e-20,-1.0842021724855e-19,0.295980507109468
65.75,-2.16840434497101e-19,-2.16840434497101e-19,0.58461445959535
65.8125,-1.0842021724855e-19,-2.16840434497101e-19,0.858853263959736
65.875,-2.16840434497101e-19,0,1.11194425069151
65.9375,-3.25260651745651e-19,0,1.33765547972096
66,-5.42101086242752e-19,-8.67361737988404e-19,1.53042919146897
66.0625,-2.16840434497101e-19,0,1.68551865733839
66.125,-4.33680868994202e-19,-8.67361737988404e-19,1.79910505993054
66.1875,-4.33680868994202e-19,-8.67361737988404e-19,1.86839152500913
66.25,-4.33680868994202e-19,0,1.89167198983129
66.3125,-6.50521303491303e-19,0,1.86837321207757
66.375,-6.50521303491303e-19,-8.67361737988404e-19,1.79906888498193
66.4375,-6.50521303491303e-19,-8.67361737988404e-19,1.68546551109962
66.5,-2.16840434497101e-19,0,1.53036038254812
66.5625,-3.25260651745651e-19,-4.33680868994202e-19,1.3375727023878
66.625,-1.0842021724855e-19,-4.33680868994202e-19,1.111849543162
66.6875,-2.16840434497101e-19,-4.33680868994202e-19,0.858748958212003
66.75,-1.0842021724855e-19,-4.33680868994202e-19,0.584503123953092
66.8125,-5.42101086242752e-20,-1.0842021724855e-19,0.29586488300464
66.875,1.32348898008484e-23,0,-5.85332071354916e-05
66.9375,8.13151629364128e-20,2.16840434497101e-19,-0.295980508074681
67,1.0842021724855e-19,0,-0.584614460489961
67.0625,1.0842021724855e-19,4.33680868994202e-19,-0.858853264650612
67.125,2.16840434497101e-19,4.33680868994202e-19,-1.1119442510805
67.1875,2.16840434497101e-19,4.33680868994202e-19,-1.33765547975834
67.25,5.42101086242752e-19,4.33680868994202e-19,-1.53042919115976
67.3125,4.33680868994202e-19,8.67361737988404e-19,-1.68551865673972
67.375,6.50521303491303e-19,1.73472347597681e-18,-1.79910505914162
67.4375,2.16840434497101e-19,8.67361737988404e-19,-1.86839152415495
67.5,6.50521303491303e-19,1.73472347597681e-18,-1.89167198904291
67.5625,2.16840434497101e-19,0,-1.86837321147215
67.625,6.50521303491303e-19,8.67361737988404e-19,-1.79906888464544
67.6875,2.16840434497101e-19,4.33680868994202e-19,-1.6854655110748
67.75,4.33680868994202e-19,4.33680868994202e-19,-1.53036038282931
67.8125,2.16840434497101e-19,0,-1.33757270292322
67.875,2.16840434497101e-19,0,-1.11184954386322
67.9375,1.0842021724855e-19,-2.16840434497101e-19,-0.858748958967893
68,1.0842021724855e-19,0,-0.584503124647811
68.0625,5.42101086242752e-20,1.0842021724855e-19,-0.295864883535139
68.125,-6.61744490042422e-24,-5.29395592033938e-23,5.85329162899997e-05
68.1875,-2.71050543121376e-20,-1.0842021724855e-19,0.295980508059985
68.25,-1.62630325872826e-19,0,0.58461446074524
68.3125,-1.0842021724855e-19,-4.33680868994202e-19,0.85885326512941
68.375,-1.0842021724855e-19,0,1.11194425170362
68.4375,-2.16840434497101e-19,-8.67361737988404e-19,1.3376554804271
68.5,-3.25260651745651e-19,-4.33680868994202e-19,1.53042919177186
68.5625,-4.33680868994202e-19,-8.67361737988404e-19,1.68551865720433
68.625,-6.50521303491303e-19,0,1.79910505939298
68.6875,-2.16840434497101e-19,-1.73472347597681e-18,1.86839152416151
68.75,-4.33680868994202e-19,0,1.89167198881105
68.8125,-4.33680868994202e-19,-8.67361737988404e-19,1.86837321104411
68.875,-4.33680868994202e-19,-8.67361737988404e-19,1.79906888409183
68.9375,-6.50521303491303e-19,-4.33680868994202e-19,1.68546551048304
69,-2.16840434497101e-19,-4.33680868994202e-19,1.53036038229009
69.0625,-4.33680868994202e-19,-4.33680868994202e-19,1.33757270251634
69.125,-3.25260651745651e-19,-4.33680868994202e-19,1.11184954364618
69.1875,-3.25260651745651e-19,0,0.858748958967815
69.25,-2.71050543121376e-19,-2.16840434497101e-19,0.584503124858065
69.3125,-1.0842021724855e-19,-2.16840434497101e-19,0.295864883917702
69.375,6.61744490042422e-24,0,-5.85324244366824e-05
69.4375,5.42101086242752e-20,1.0842021724855e-19,-0.295980507536523
69.5,1.0842021724855e-19,2.16840434497101e-19,-0.58461446027032
69.5625,3.25260651745651e-19,2.16840434497101e-19,-0.858853264773211
69.625,2.16840434497101e-19,8.67361737988404e-19,-1.11194425151636
69.6875,2.16840434497101e-19,4.33680868994202e-19,-1.33765548043208
69.75,4.33680868994202e-19,8.67361737988404e-19,-1.5304291919625
69.8125,4.33680868994202e-19,8.67361737988404e-19,-1.68551865754624
69.875,2.16840434497101e-19,0,-1.79910505982985
69.9375,6.50521303491303e-19,0,-1.86839152462452
70,6.50521303491303e-19,8.67361737988404e-19,-1.89167198922942
70.0625,2.16840434497101e-19,8.67361737988404e-19,-1.86837321135598
70.125,4.33680868994202e-19,8.67361737988404e-19,-1.79906888425322
70.1875,6.50521303491303e-19,4.33680868994202e-19,-1.68546551047416
70.25,7.58941520739853e-19,4.33680868994202e-19,-1.53036038211742
70.3125,4.33680868994202e-19,4.33680868994202e-19,-1.33757270221088
70.375,1.0842021724855e-19,0,-1.11184954325807
70.4375,1.0842021724855e-19,4.33680868994202e-19,-0.858748958558368
70.5,2.71050543121376e-19,2.16840434497101e-19,-0.584503124489651
70.5625,8.13151629364128e-20,1.0842021724855e-19,-0.295864883644797
70.625,-1.32348898008484e-23,-2.64697796016969e-23,5.85325634589252e-05
70.6875,-8.13151629364128e-20,-2.16840434497101e-19,0.295980507524762
70.75,-5.42101086242752e-20,0,0.58461446011396
70.8125,-2.16840434497101e-19,-4.33680868994202e-19,0.858853264500328
70.875,-2.16840434497101e-19,-4.33680868994202e-19,1.11194425117172
70.9375,-2.16840434497101e-19,-4.33680868994202e-19,1.33765548006997
71,0,-4.33680868994202e-19,1.5304291916381
71.0625,-2.16840434497101e-19,-4.33680868994202e-19,1.68551865730743
71.125,-4.33680868994202e-19,-8.67361737988404e-19,1.79910505971019
71.1875,-4.33680868994202e-19,0,1.86839152463847
71.25,-2.16840434497101e-19,-8.67361737988404e-19,1.89167198937084
71.3125,-2.16840434497101e-19,0,1.86837321159967
71.375,-4.33680868994202e-19,-8.67361737988404e-19,1.79906888455928
71.4375,-4.33680868994202e-19,-4.33680868994202e-19,1.68546551079443
71.5,-6.50521303491303e-19,-8.67361737988404e-19,1.530360382403
71.5625,-1.0842021724855e-19,-8.67361737988404e-19,1.33757270241975
71.625,-3.25260651745651e-19,-8.67361737988404e-19,1.11184954336101
71.6875,-3.25260651745651e-19,-2.16840434497101e-19,0.858748958542936
71.75,-2.16840434497101e-19,-2.16840434497101e-19,0.584503124361781
71.8125,-5.42101086242752e-20,0,0.295864883427126
71.875,1.32348898008484e-23,0,-5.85328351146871e-05
71.9375,5.42101086242752e-20,1.0842021724855e-19,-0.295980507807922
72,5.42101086242752e-20,0,-0.584614460365433
72.0625,2.16840434497101e-19,2.16840434497101e-19,-0.858853264682976
72.125,3.25260651745651e-19,4.33680868994202e-19,-1.1119442512602
72.1875,3.25260651745651e-19,8.67361737988404e-19,-1.33765548005357
72.25,5.42101086242752e-19,4.33680868994202e-19,-1.53042919152246
72.3125,2.16840434497101e-19,4.33680868994202e-19,-1.68551865711316
72.375,4.33680868994202e-19,8.67361737988404e-19,-1.79910505946896
72.4375,4.33680868994202e-19,0,-1.8683915243881
72.5,4.33680868994202e-19,0,-1.89167198914949
72.5625,6.50521303491303e-19,8.67361737988404e-19,-1.86837321143989
72.625,4.33680868994202e-19,8.67361737988404e-19,-1.79906888448337
72.6875,2.16840434497101e-19,4.33680868994202e-19,-1.6854655108113
72.75,3.25260651745651e-19,0,-1.53036038250737
72.8125,2.16840434497101e-19,4.33680868994202e-19,-1.33757270259317
72.875,2.16840434497101e-19,0,-1.11184954357517
72.9375,2.16840434497101e-19,4.33680868994202e-19,-0.858748958764195
73,1.0842021724855e-19,0,-0.584503124556671
73.0625,1.0842021724855e-19,0,-0.295864883566827
73.125,-1.32348898008484e-23,-2.64697796016969e-23,5.85327700382921e-05
73.1875,-8.13151629364128e-20,-1.0842021724855e-19,0.295980507824991
73.25,-1.62630325872826e-19,-2.16840434497101e-19,0.584614460459677
73.3125,-1.0842021724855e-19,0,0.858853264837725
73.375,-1.0842021724855e-19,-4.33680868994202e-19,1.11194425145026
73.4375,-4.33680868994202e-19,-8.67361737988404e-19,1.33765548024919
73.5,-1.0842021724855e-19,0,1.53042919169395
73.5625,-4.33680868994202e-19,-4.33680868994202e-19,1.68551865723525
73.625,-6.50521303491303e-19,-8.67361737988404e-19,1.79910505952468
73.6875,-4.33680868994202e-19,-8.67361737988404e-19,1.86839152437109
73.75,-2.16840434497101e-19,-8.67361737988404e-19,1.8916719890645
73.8125,-4.33680868994202e-19,-8.67361737988404e-19,1.86837321130181
73.875,-2.16840434497101e-19,0,1.79906888431471
73.9375,-6.50521303491303e-19,-4.33680868994202e-19,1.68546551063842
74,-4.33680868994202e-19,-4.33680868994202e-19,1.53036038235655
74.0625,-2.16840434497101e-19,0,1.3375727024866
74.125,-1.0842021724855e-19,-4.33680868994202e-19,1.11184954352745
74.1875,-2.16840434497101e-19,0,0.858748958780941
74.25,-5.42101086242752e-20,-4.33680868994202e-19,0.584503124633349
74.3125,-8.13151629364128e-20,-2.16840434497101e-19,0.295864883690006
74.375,1.32348898008484e-23,0,-5.85326204190955e-05
74.4375,5.42101086242752e-20,3.25260651745651e-19,-0.295980507672139
74.5,1.0842021724855e-19,0,-0.584614460326976
74.5625,3.25260651745651e-19,2.16840434497101e-19,-0.858853264744575
74.625,2.16840434497101e-19,0,-1.11194425140953
74.6875,2.16840434497101e-19,4.33680868994202e-19,-1.3376554802655
74.75,1.0842021724855e-19,4.33680868994202e-19,-1.53042919176302
74.8125,4.33680868994202e-19,4.33680868994202e-19,-1.6855186573451
74.875,2.16840434497101e-19,8.67361737988404e-19,-1.7991050596575
74.9375,6.50521303491303e-19,0,-1.8683915245061
75,2.16840434497101e-19,0,-1.89167198918122
75.0625,2.16840434497101e-19,8.67361737988404e-19,-1.86837321138316
75.125,4.33680868994202e-19,8.67361737988404e-19,-1.79906888434946
75.1875,2.16840434497101e-19,8.67361737988404e-19,-1.68546551062274
75.25,3.25260651745651e-19,4.33680868994202e-19,-1.53036038229426
75.3125,3.25260651745651e-19,8.67361737988404e-19,-1.33757270238859
75.375,2.16840434497101e-19,4.33680868994202e-19,-1.11184954340962
75.4375,1.0842021724855e-19,2.16840434497101e-19,-0.85874895866165
75.5,1.0842021724855e-19,2.16840434497101e-19,-0.584503124530579
75.5625,1.0842021724855e-19,1.0842021724855e-19,-0.295864883618912
75.625,-1.32348898008484e-23,-2.64697796016969e-23,5.85326499969232e-05
75.6875,-5.42101086242752e-20,-1.0842021724855e-19,0.295980507657103
75.75,-1.0842021724855e-19,-2.16840434497101e-19,0.584614460270909
75.8125,-2.16840434497101e-19,-2.16840434497101e-19,0.858853264657257
75.875,-3.25260651745651e-19,-4.33680868994202e-19,1.11194425130493
75.9375,-3.25260651745651e-19,-4.33680868994202e-19,1.33765548016011
76,-2.16840434497101e-19,-4.33680868994202e-19,1.53042919167275
76.0625,-6.50521303491303e-19,-8.67361737988404e-19,1.6855186572831
76.125,-4.33680868994202e-19,0,1.79910505963235
76.1875,-2.16840434497101e-19,0,1.86839152452043
76.25,-4.33680868994202e-19,-8.67361737988404e-19,1.89167198923169
76.3125,-4.33680868994202e-19,-8.67361737988404e-19,1.86837321146105
76.375,-2.16840434497101e-19,-8.67361737988404e-19,1.79906888444214
76.4375,-4.33680868994202e-19,-4.33680868994202e-19,1.68546551071585
76.5,-3.25260651745651e-19,0,1.53036038237365
76.5625,-4.33680868994202e-19,-4.33680868994202e-19,1.33757270244267
76.625,-1.0842021724855e-19,-4.33680868994202e-19,1.111849543431
76.6875,0,0,0.858748958648027
76.75,-1.62630325872826e-19,-2.16840434497101e-19,0.584503124485191
76.8125,-5.42101086242752e-20,-2.16840434497101e-19,0.295864883549509
76.875,1.32348898008484e-23,0,-5.85327322258381e-05
76.9375,5.42101086242752e-20,1.0842021724855e-19,-0.295980507739382
77,5.42101086242752e-20,2.16840434497101e-19,-0.584614460340613
77.0625,2.16840434497101e-19,4.33680868994202e-19,-0.858853264704412
77.125,2.16840434497101e-19,0,-1.11194425132306
77.1875,3.25260651745651e-19,4.33680868994202e-19,-1.3376554801473
77.25,2.16840434497101e-19,4.33680868994202e-19,-1.53042919163193
77.3125,6.50521303491303e-19,4.33680868994202e-19,-1.68551865722123
77.375,4.33680868994202e-19,8.67361737988404e-19,-1.79910505955943
77.4375,2.16840434497101e-19,0,-1.86839152444783
77.5,2.16840434497101e-19,8.67361737988404e-19,-1.89167198917036
77.5625,4.33680868994202e-19,0,-1.86837321141991
77.625,6.50521303491303e-19,8.67361737988404e-19,-1.79906888442683
77.6875,4.33680868994202e-19,4.33680868994202e-19,-1.68546551072786
77.75,2.16840434497101e-19,8.67361737988404e-19,-1.53036038241036
77.8125,4.33680868994202e-19,8.67361737988404e-19,-1.33757270249774
77.875,3.25260651745651e-19,8.67361737988404e-19,-1.11184954349571
77.9375,3.25260651745651e-19,2.16840434497101e-19,-0.858748958712142
78,1.0842021724855e-19,0,-0.584503124539095
78.0625,8.13151629364128e-20,0,-0.295864883585451
78.125,-1.32348898008484e-23,-2.64697796016969e-23,5.85327193465004e-05
78.1875,-1.0842021724855e-19,-1.0842021724855e-19,0.295980507750615
78.25,-1.0842021724855e-19,-2.16840434497101e-19,0.584614460373582
78.3125,-2.16840434497101e-19,-4.33680868994202e-19,0.858853264753515
78.375,-3.25260651745651e-19,-4.33680868994202e-19,1.11194425138041
78.4375,-4.33680868994202e-19,-4.33680868994202e-19,1.33765548020385
78.5,-2.16840434497101e-19,0,1.53042919167928
78.5625,-6.50521303491303e-19,-8.67361737988404e-19,1.68551865725246
78.625,-4.33680868994202e-19,0,1.79910505957031
78.6875,-6.50521303491303e-19,0,1.86839152443733
78.75,-4.33680868994202e-19,-8.67361737988404e-19,1.89167198914071
78.8125,-4.33680868994202e-19,-8.67361737988404e-19,1.86837321137617
78.875,-4.33680868994202e-19,0,1.79906888437603
78.9375,-6.50521303491303e-19,0,1.68546551067787
79,-4.33680868994202e-19,-8.67361737988404e-19,1.53036038236872
79.0625,-4.33680868994202e-19,-4.33680868994202e-19,1.33757270247055
79.125,-2.16840434497101e-19,4.33680868994202e-19,1.11184954348657
79.1875,-2.16840434497101e-19,-2.16840434497101e-19,0.858748958721934
79.25,-1.62630325872826e-19,-2.16840434497101e-19,0.584503124565684
79.3125,-1.35525271560688e-19,-1.0842021724855e-19,0.295864883624399
79.375,1.32348898008484e-23,2.64697796016969e-23,-5.85326743029371e-05
79.4375,8.13151629364128e-20,2.16840434497101e-19,-0.295980507706504
79.5,2.16840434497101e-19,4.33680868994202e-19,-0.584614460337137
79.5625,3.25260651745651e-19,2.16840434497101e-19,-0.85885326472987
79.625,4.33680868994202e-19,0,-1.11194425137276
79.6875,3.25260651745651e-19,8.67361737988404e-19,-1.33765548021293
79.75,2.16840434497101e-19,0,-1.5304291917032
79.8125,2.16840434497101e-19,8.67361737988404e-19,-1.68551865728719
79.875,2.16840434497101e-19,0,-1.7991050596102
79.9375,6.50521303491303e-19,8.67361737988404e-19,-1.86839152447626
80,6.50521303491303e-19,8.67361737988404e-19,-1.89167198917281
80.0625,4.33680868994202e-19,8.67361737988404e-19,-1.86837321139681
80.125,2.16840434497101e-19,0,-1.79906888438239
80.1875,2.16840434497101e-19,4.33680868994202e-19,-1.68546551066948
80.25,3.25260651745651e-19,8.67361737988404e-19,-1.53036038234737
80.3125,3.25260651745651e-19,4.33680868994202e-19,-1.33757270243967
80.375,2.16840434497101e-19,0,-1.11184954345115
80.4375,0,2.16840434497101e-19,-0.858748958687638
80.5,1.62630325872826e-19,4.33680868994202e-19,-0.584503124537496
80.5625,1.0842021724855e-19,2.16840434497101e-19,-0.295864883606444
80.625,-6.61744490042422e-24,-2.64697796016969e-23,5.85326796117448e-05
80.6875,-1.0842021724855e-19,-2.16840434497101e-19,0.295980507698806
80.75,-5.42101086242752e-20,0,0.584614460317863
80.8125,-2.16840434497101e-19,-4.33680868994202e-19,0.858853264702362
80.875,-1.0842021724855e-19,-4.33680868994202e-19,1.11194425134142
80.9375,-3.25260651745651e-19,-4.33680868994202e-19,1.33765548018264
81,-4.33680868994202e-19,-4.33680868994202e-19,1.53042919167839
81.0625,-2.16840434497101e-19,-4.33680868994202e-19,1.68551865727156
81.125,-4.33680868994202e-19,-8.67361737988404e-19,1.7991050596058
81.1875,-4.33680868994202e-19,-1.73472347597681e-18,1.86839152448342
81.25,-4.33680868994202e-19,-8.67361737988404e-19,1.89167198919009
81.3125,-4.33680868994202e-19,0,1.86837321142133
81.375,-2.16840434497101e-19,0,1.79906888441023
81.4375,-4.33680868994202e-19,-8.67361737988404e-19,1.68546551069628
81.5,-3.25260651745651e-19,-4.33680868994202e-19,1.53036038236909
81.5625,-4.33680868994202e-19,0,1.33757270245327
81.625,-3.25260651745651e-19,-4.33680868994202e-19,1.11184954345473
81.6875,-1.0842021724855e-19,-4.33680868994202e-19,0.858748958681062
81.75,-1.0842021724855e-19,0,0.584503124522003
81.8125,-5.42101086242752e-20,0,0.295864883584525
81.875,1.32348898008484e-23,0,-5.85327043529292e-05
81.9375,8.13151629364128e-20,0,-0.29598050772259
82,1.0842021724855e-19,2.16840434497101e-19,-0.584614460337184
82.0625,2.16840434497101e-19,2.16840434497101e-19,-0.858853264714125
82.125,3.25260651745651e-19,0,-1.11194425134436
82.1875,3.25260651745651e-19,8.67361737988404e-19,-1.33765548017653
82.25,2.16840434497101e-19,4.33680868994202e-19,-1.5304291916644
82.3125,4.33680868994202e-19,4.33680868994202e-19,-1.68551865725202
82.375,4.33680868994202e-19,8.67361737988404e-19,-1.79910505958388
82.4375,2.16840434497101e-19,0,-1.86839152446242
82.5,6.50521303491303e-19,8.67361737988404e-19,-1.89167198917322
82.5625,2.16840434497101e-19,0,-1.86837321141095
82.625,4.33680868994202e-19,0,-1.79906888440781
82.6875,4.33680868994202e-19,4.33680868994202e-19,-1.68546551070188
82.75,3.25260651745651e-19,0,-1.5303603823816
82.8125,4.33680868994202e-19,4.33680868994202e-19,-1.33757270247066
82.875,3.25260651745651e-19,4.33680868994202e-19,-1.1118495434742
82.9375,3.25260651745651e-19,4.33680868994202e-19,-0.858748958699396
83,1.62630325872826e-19,4.33680868994202e-19,-0.584503124536854
83.0625,8.13151629364128e-20,1.0842021724855e-19,-0.295864883593556
83.125,-1.32348898008484e-23,-2.64697796016969e-23,5.85327023304317e-05
83.1875,-1.35525271560688e-19,-1.0842021724855e-19,0.295980507727443
83.25,-5.42101086242752e-20,-4.33680868994202e-19,0.584614460348191
83.3125,-2.16840434497101e-19,-2.16840434497101e-19,0.858853264729634
83.375,-2.16840434497101e-19,-4.33680868994202e-19,1.1119442513616
83.4375,-3.25260651745651e-19,0,1.33765548019293
83.5,-5.42101086242752e-19,-4.33680868994202e-19,1.53042919167757
83.5625,-2.16840434497101e-19,0,1.6855186572599
83.625,-4.33680868994202e-19,-8.67361737988404e-19,1.79910505958557
83.6875,-6.50521303491303e-19,0,1.86839152445787
83.75,-8.67361737988404e-19,-8.67361737988404e-19,1.89167198916326
83.8125,-4.33680868994202e-19,-8.67361737988404e-19,1.86837321139727
83.875,-6.50521303491303e-19,0,1.7990688843925
83.9375,-4.33680868994202e-19,0,1.68546551068741
84,-4.33680868994202e-19,-4.33680868994202e-19,1.53036038237007
84.0625,-4.33680868994202e-19,-4.33680868994202e-19,1.33757270246368
84.125,-2.16840434497101e-19,0,1.11184954347292
84.1875,-4.33680868994202e-19,-2.16840434497101e-19,0.858748958703685
84.25,-5.42101086242752e-20,-2.16840434497101e-19,0.584503124545692
84.3125,-5.42101086242752e-20,-1.0842021724855e-19,0.2958648836059
84.375,1.98523347012727e-23,2.64697796016969e-23,-5.85326886589419e-05
84.4375,8.13151629364128e-20,1.0842021724855e-19,-0.295980507714771
84.5,1.0842021724855e-19,2.16840434497101e-19,-0.584614460338102
84.5625,2.16840434497101e-19,0,-0.858853264723642
84.625,2.16840434497101e-19,4.33680868994202e-19,-1.11194425136059
84.6875,3.25260651745651e-19,8.67361737988404e-19,-1.33765548019667
84.75,2.16840434497101e-19,4.33680868994202e-19,-1.53042919168551
84.8125,2.16840434497101e-19,4.33680868994202e-19,-1.68551865727082
84.875,6.50521303491303e-19,8.67361737988404e-19,-1.7991050595975
84.9375,6.50521303491303e-19,8.67361737988404e-19,-1.86839152446911
85,6.50521303491303e-19,1.73472347597681e-18,-1.89167198917209
85.0625,4.33680868994202e-19,-8.67361737988404e-19,-1.86837321140246
85.125,6.50521303491303e-19,8.67361737988404e-19,-1.79906888439334
85.1875,2.16840434497101e-19,0,-1.68546551068386
85.25,3.25260651745651e-19,4.33680868994202e-19,-1.53036038236304
85.3125,4.33680868994202e-19,4.33680868994202e-19,-1.33757270245413
85.375,3.25260651745651e-19,0,-1.11184954346223
85.4375,2.16840434497101e-19,2.16840434497101e-19,-0.858748958693917
85.5,2.16840434497101e-19,4.33680868994202e-19,-0.584503124538064
85.5625,8.13151629364128e-20,1.0842021724855e-19,-0.295864883601303
85.625,-1.32348898008484e-23,0,5.85326894093368e-05
85.6875,-5.42101086242752e-20,0,0.295980507711591
85.75,-2.71050543121376e-19,-2.16840434497101e-19,0.584614460331771
85.8125,-2.16840434497101e-19,0,0.858853264715157
85.875,-2.16840434497101e-19,-4.33680868994202e-19,1.11194425135112
85.9375,-4.33680868994202e-19,-1.30104260698261e-18,1.337655480188
86,-2.16840434497101e-19,-4.33680868994202e-19,1.53042919167862
86.0625,-4.33680868994202e-19,-8.67361737988404e-19,1.68551865726686
86.125,-4.33680868994202e-19,-8.67361737988404e-19,1.79910505959708
86.1875,-8.67361737988404e-19,0,1.86839152447203
86.25,-4.33680868994202e-19,-8.67361737988404e-19,1.89167198917785
86.3125,-6.50521303491303e-19,0,1.86837321141006
86.375,-4.33680868994202e-19,0,1.79906888440161
86.4375,-4.33680868994202e-19,-8.67361737988404e-19,1.68546551069162
86.5,-3.25260651745651e-19,0,1.53036038236888
86.5625,-4.33680868994202e-19,-4.33680868994202e-19,1.3375727024574
86.625,-2.16840434497101e-19,0,1.11184954346268
86.6875,-1.0842021724855e-19,-2.16840434497101e-19,0.858748958691143
86.75,-1.0842021724855e-19,0,0.584503124532819
86.8125,-2.71050543121376e-20,-1.0842021724855e-19,0.295864883594516
86.875,1.32348898008484e-23,2.64697796016969e-23,-5.8532696766931e-05
86.9375,5.42101086242752e-20,0,-0.295980507718491
87,1.62630325872826e-19,0,-0.584614460336885
87.0625,2.16840434497101e-19,4.33680868994202e-19,-0.858853264717968
87.125,2.16840434497101e-19,8.67361737988404e-19,-1.11194425135143
87.1875,3.25260651745651e-19,8.67361737988404e-19,-1.33765548018551
87.25,4.33680868994202e-19,0,-1.5304291916741
87.3125,6.50521303491303e-19,0,-1.68551865726088
87.375,4.33680868994202e-19,8.67361737988404e-19,-1.79910505959056
87.4375,4.33680868994202e-19,8.67361737988404e-19,-1.86839152446604
87.5,4.33680868994202e-19,8.67361737988404e-19,-1.89167198917326
87.5625,4.33680868994202e-19,0,-1.86837321140756
87.625,4.33680868994202e-19,0,-1.79906888440152
87.6875,2.16840434497101e-19,4.33680868994202e-19,-1.68546551069377
87.75,4.33680868994202e-19,4.33680868994202e-19,-1.53036038237308
87.8125,5.42101086242752e-19,0,-1.33757270246287
87.875,3.25260651745651e-19,0,-1.11184954346835
87.9375,2.16840434497101e-19,4.33680868994202e-19,-0.858748958696423
88,1.0842021724855e-19,2.16840434497101e-19,-0.584503124536835
88.0625,5.42101086242752e-20,1.0842021724855e-19,-0.295864883596591
88.125,-1.98523347012727e-23,-2.64697796016969e-23,5.8532696575127e-05
88.1875,-5.42101086242752e-20,-1.0842021724855e-19,0.295980507720358
88.25,-1.62630325872826e-19,-4.33680868994202e-19,0.584614460340666
88.3125,-3.25260651745651e-19,-2.16840434497101e-19,0.85885326472262
88.375,-2.16840434497101e-19,0,1.11194425135643
88.4375,-2.16840434497101e-19,0,1.33765548019023
88.5,-4.33680868994202e-19,-4.33680868994202e-19,1.53042919167762
88.5625,-4.33680868994202e-19,-4.33680868994202e-19,1.68551865726276
88.625,-4.33680868994202e-19,-8.67361737988404e-19,1.7991050595906
88.6875,-6.50521303491303e-19,-8.67361737988404e-19,1.86839152446422
88.75,-4.33680868994202e-19,-8.67361737988404e-19,1.89167198916998
88.8125,-4.33680868994202e-19,-8.67361737988404e-19,1.86837321140331
88.875,-6.50521303491303e-19,0,1.79906888439707
88.9375,-6.50521303491303e-19,-4.33680868994202e-19,1.68546551068974
89,-6.50521303491303e-19,-4.33680868994202e-19,1.53036038236994
89.0625,-3.25260651745651e-19,-4.33680868994202e-19,1.3375727024613
89.125,-3.25260651745651e-19,-4.33680868994202e-19,1.11184954346839
89.1875,-2.16840434497101e-19,-4.33680868994202e-19,0.858748958697962
89.25,-1.0842021724855e-19,-2.16840434497101e-19,0.584503124539956
89.3125,0,-1.0842021724855e-19,0.29586488360046
89.375,1.98523347012727e-23,5.29395592033938e-23,-5.85326927084648e-05
89.4375,8.13151629364128e-20,1.0842021724855e-19,-0.295980507716601
89.5,5.42101086242752e-20,0,-0.584614460337859
89.5625,2.16840434497101e-19,2.16840434497101e-19,-0.858853264721322
89.625,3.25260651745651e-19,8.67361737988404e-19,-1.11194425135658
89.6875,3.25260651745651e-19,4.33680868994202e-19,-1.33765548019171
89.75,3.25260651745651e-19,4.33680868994202e-19,-1.53042919168029
89.8125,6.50521303491303e-19,4.33680868994202e-19,-1.68551865726613
89.875,4.33680868994202e-19,8.67361737988404e-19,-1.79910505959407
89.9375,6.50521303491303e-19,0,-1.86839152446738
90,4.33680868994202e-19,8.67361737988404e-19,-1.89167198917231
90.0625,4.33680868994202e-19,0,-1.86837321140452
90.125,4.33680868994202e-19,8.67361737988404e-19,-1.79906888439691
90.1875,6.50521303491303e-19,0,-1.68546551068835
90.25,2.16840434497101e-19,4.33680868994202e-19,-1.5303603823676
90.3125,2.16840434497101e-19,4.33680868994202e-19,-1.33757270245822
90.375,2.16840434497101e-19,0,-1.11184954346519
90.4375,3.25260651745651e-19,2.16840434497101e-19,-0.858748958695287
90.5,1.0842021724855e-19,2.16840434497101e-19,-0.584503124537733
90.5625,8.13151629364128e-20,1.0842021724855e-19,-0.295864883599335
90.625,-1.32348898008484e-23,-2.64697796016969e-23,5.85326924441062e-05
90.6875,-1.0842021724855e-19,-2.16840434497101e-19,0.295980507715515
90.75,-2.16840434497101e-19,-4.33680868994202e-19,0.584614460335861
90.8125,-2.16840434497101e-19,0,0.858853264718695
90.875,-3.25260651745651e-19,-4.33680868994202e-19,1.11194425135384
90.9375,-4.33680868994202e-19,-8.67361737988404e-19,1.33765548018934
91,-2.16840434497101e-19,-4.33680868994202e-19,1.53042919167844
91.0625,-4.33680868994202e-19,-4.33680868994202e-19,1.68551865726522
91.125,-4.33680868994202e-19,-8.67361737988404e-19,1.79910505959425
91.1875,-6.50521303491303e-19,0,1.86839152446849
91.25,-4.33680868994202e-19,0,1.89167198917421
91.3125,-4.33680868994202e-19,0,1.86837321140686
91.375,-4.33680868994202e-19,-8.67361737988404e-19,1.79906888439935
91.4375,-4.33680868994202e-19,-4.33680868994202e-19,1.68546551069051
91.5,-5.42101086242752e-19,-4.33680868994202e-19,1.5303603823691
91.5625,-3.25260651745651e-19,-4.33680868994202e-19,1.33757270245905
91.625,-2.16840434497101e-19,0,1.11184954346513
91.6875,-4.33680868994202e-19,-4.33680868994202e-19,0.858748958694172
91.75,-5.42101086242752e-20,-2.16840434497101e-19,0.584503124536169
91.8125,-2.71050543121376e-20,-1.0842021724855e-19,0.295864883597373
91.875,1.32348898008484e-23,0,-5.85326947145358e-05
91.9375,1.0842021724855e-19,2.16840434497101e-19,-0.295980507717422
92,1.62630325872826e-19,4.33680868994202e-19,-0.584614460337227
92.0625,2.16840434497101e-19,4.33680868994202e-19,-0.858853264719421
92.125,1.0842021724855e-19,4.33680868994202e-19,-1.11194425135357
92.1875,4.33680868994202e-19,0,-1.33765548018834
92.25,3.25260651745651e-19,0,-1.53042919167699
92.3125,4.33680868994202e-19,4.33680868994202e-19,-1.68551865726329
92.375,4.33680868994202e-19,0,-1.7991050595923
92.4375,2.16840434497101e-19,8.67361737988404e-19,-1.86839152446682
92.5,4.33680868994202e-19,8.67361737988404e-19,-1.89167198917299
92.5625,4.33680868994202e-19,-8.67361737988404e-19,-1.86837321140629
92.625,6.50521303491303e-19,8.67361737988404e-19,-1.79906888439946
92.6875,4.33680868994202e-19,4.33680868994202e-19,-1.68546551069139
92.75,5.42101086242752e-19,4.33680868994202e-19,-1.53036038237052
92.8125,4.33680868994202e-19,0,-1.33757270246063
92.875,1.0842021724855e-19,0,-1.11184954346699
92.9375,2.16840434497101e-19,2.16840434497101e-19,-0.858748958695794
93,2.16840434497101e-19,4.33680868994202e-19,-0.584503124537134
93.0625,5.42101086242752e-20,0,-0.295864883597928
93.125,-1.98523347012727e-23,0,5.85326948595724e-05
93.1875,-1.0842021724855e-19,-1.0842021724855e-19,0.295980507718264
93.25,-1.62630325872826e-19,-2.16840434497101e-19,0.584614460338243
93.3125,-1.0842021724855e-19,-2.16840434497101e-19,0.858853264720791
93.375,-1.0842021724855e-19,-4.33680868994202e-19,1.11194425135518
93.4375,-3.25260651745651e-19,-4.33680868994202e-19,1.33765548018956
93.5,-4.33680868994202e-19,-4.33680868994202e-19,1.53042919167786
93.5625,-4.33680868994202e-19,-4.33680868994202e-19,1.68551865726377
93.625,-4.33680868994202e-19,0,1.79910505959219
93.6875,-4.33680868994202e-19,-8.67361737988404e-19,1.86839152446616
93.75,-2.16840434497101e-19,-8.67361737988404e-19,1.89167198917192
93.8125,-4.33680868994202e-19,-8.67361737988404e-19,1.86837321140496
93.875,-6.50521303491303e-19,-8.67361737988404e-19,1.79906888439816
93.9375,-2.16840434497101e-19,-8.67361737988404e-19,1.68546551069015
94,-4.33680868994202e-19,-8.67361737988404e-19,1.53036038236979
94.0625,-4.33680868994202e-19,-8.67361737988404e-19,1.33757270246035
94.125,-3.25260651745651e-19,-8.67361737988404e-19,1.11184954346698
94.1875,-2.16840434497101e-19,-2.16840434497101e-19,0.858748958696287
94.25,-1.62630325872826e-19,-4.33680868994202e-19,0.584503124538088
94.3125,-5.42101086242752e-20,0,0.295864883598919
94.375,6.61744490042422e-24,5.29395592033938e-23,-5.85326937795844e-05
94.4375,5.42101086242752e-20,1.0842021724855e-19,-0.295980507717117
94.5,1.0842021724855e-19,4.33680868994202e-19,-0.584614460337702
94.5625,1.0842021724855e-19,4.33680868994202e-19,-0.858853264720574
94.625,2.16840434497101e-19,4.33680868994202e-19,-1.1119442513552
94.6875,4.33680868994202e-19,8.67361737988404e-19,-1.33765548019019
94.75,2.16840434497101e-19,0,-1.53042919167877
94.8125,2.16840434497101e-19,0,-1.6855186572648
94.875,4.33680868994202e-19,8.67361737988404e-19,-1.79910505959324
94.9375,2.16840434497101e-19,8.67361737988404e-19,-1.86839152446707
95,2.16840434497101e-19,8.67361737988404e-19,-1.89167198917256
95.0625,6.50521303491303e-19,8.67361737988404e-19,-1.86837321140526
95.125,4.33680868994202e-19,8.67361737988404e-19,-1.79906888439801
95.1875,2.16840434497101e-19,0,-1.68546551068974
95.25,4.33680868994202e-19,4.33680868994202e-19,-1.53036038236895
95.3125,3.25260651745651e-19,0,-1.33757270245937
95.375,2.16840434497101e-19,4.33680868994202e-19,-1.11184954346606
95.4375,2.16840434497101e-19,2.16840434497101e-19,-0.858748958695494
95.5,2.16840434497101e-19,2.16840434497101e-19,-0.584503124537432
95.5625,2.71050543121376e-20,1.0842021724855e-19,-0.295864883598801
95.625,-1.32348898008484e-23,0,5.85326935588421e-05
95.6875,-2.71050543121376e-20,-2.16840434497101e-19,0.295980507716805
95.75,-1.62630325872826e-19,-4.33680868994202e-19,0.584614460336909
95.8125,-1.0842021724855e-19,-2.16840434497101e-19,0.858853264719655
95.875,-2.16840434497101e-19,-4.33680868994202e-19,1.11194425135447
95.9375,-2.16840434497101e-19,-8.67361737988404e-19,1.33765548018948
96,-2.16840434497101e-19,-4.33680868994202e-19,1.53042919167828
96.0625,-2.16840434497101e-19,0,1.68551865726465
96.125,-4.33680868994202e-19,0,1.79910505959332
96.1875,-6.50521303491303e-19,-8.67361737988404e-19,1.86839152446745
96.25,-4.33680868994202e-19,0,1.89167198917315
96.3125,-6.50521303491303e-19,-8.67361737988404e-19,1.868373211406
96.375,-4.33680868994202e-19,0,1.79906888439878
96.4375,-4.33680868994202e-19,-4.33680868994202e-19,1.68546551069031
96.5,-4.33680868994202e-19,-4.33680868994202e-19,1.53036038236936
96.5625,-2.16840434497101e-19,-4.33680868994202e-19,1.33757270245953
96.625,-2.16840434497101e-19,-4.33680868994202e-19,1.11184954346587
96.6875,-3.25260651745651e-19,-2.16840434497101e-19,0.858748958695262
96.75,-1.62630325872826e-19,-4.33680868994202e-19,0.584503124537016
96.8125,-1.35525271560688e-19,-2.16840434497101e-19,0.295864883598061
96.875,1.32348898008484e-23,2.64697796016969e-23,-5.85326940051117e-05
96.9375,2.71050543121376e-20,0,-0.295980507717203
97,5.42101086242752e-20,2.16840434497101e-19,-0.584614460337363
97.0625,2.16840434497101e-19,0,-0.858853264719723
97.125,1.0842021724855e-19,8.67361737988404e-19,-1.11194425135436
97.1875,3.25260651745651e-19,4.33680868994202e-19,-1.33765548018923
97.25,5.42101086242752e-19,0,-1.53042919167769
97.3125,4.33680868994202e-19,8.67361737988404e-19,-1.68551865726402
97.375,2.16840434497101e-19,0,-1.79910505959279
97.4375,6.50521303491303e-19,8.67361737988404e-19,-1.86839152446697
97.5,2.16840434497101e-19,0,-1.89167198917286
97.5625,4.33680868994202e-19,0,-1.86837321140587
97.625,4.33680868994202e-19,8.67361737988404e-19,-1.79906888439884
97.6875,4.33680868994202e-19,0,-1.6854655106906
97.75,5.42101086242752e-19,8.67361737988404e-19,-1.53036038236973
97.8125,2.16840434497101e-19,0,-1.33757270245994
97.875,3.25260651745651e-19,0,-1.11184954346645
97.9375,2.16840434497101e-19,4.33680868994202e-19,-0.858748958695552
98,1.0842021724855e-19,2.16840434497101e-19,-0.584503124537167
98.0625,8.13151629364128e-20,1.0842021724855e-19,-0.295864883598279
98.125,-6.61744490042422e-24,-2.64697796016969e-23,5.85326942589868e-05
98.1875,-5.42101086242752e-20,-1.0842021724855e-19,0.295980507717566
98.25,-1.0842021724855e-19,-2.16840434497101e-19,0.584614460337749
98.3125,-3.25260651745651e-19,-2.16840434497101e-19,0.85885326472032
98.375,-2.16840434497101e-19,-8.67361737988404e-19,1.11194425135488
98.4375,-1.0842021724855e-19,-4.33680868994202e-19,1.33765548018951
98.5,-2.16840434497101e-19,0,1.53042919167803
98.5625,-6.50521303491303e-19,-4.33680868994202e-19,1.68551865726417
98.625,-6.50521303491303e-19,-8.67361737988404e-19,1.79910505959267
98.6875,-4.33680868994202e-19,-8.67361737988404e-19,1.86839152446674
98.75,-6.50521303491303e-19,-8.67361737988404e-19,1.89167198917251
98.8125,-2.16840434497101e-19,0,1.86837321140548
98.875,-4.33680868994202e-19,0,1.79906888439846
98.9375,-4.33680868994202e-19,-4.33680868994202e-19,1.68546551069023
99,-2.16840434497101e-19,0,1.5303603823696
99.0625,-3.25260651745651e-19,-4.33680868994202e-19,1.33757270245998
99.125,-3.25260651745651e-19,-4.33680868994202e-19,1.11184954346646
99.1875,-4.33680868994202e-19,0,0.85874895869589
99.25,-1.62630325872826e-19,-4.33680868994202e-19,0.584503124537604
99.3125,-8.13151629364128e-20,0,0.295864883598522
99.375,1.98523347012727e-23,2.64697796016969e-23,-5.8532693924141e-05
99.4375,1.35525271560688e-19,1.0842021724855e-19,-0.295980507717298
99.5,1.62630325872826e-19,4.33680868994202e-19,-0.584614460337676
99.5625,1.0842021724855e-19,4.33680868994202e-19,-0.858853264720167
99.625,1.0842021724855e-19,0,-1.11194425135487
99.6875,3.25260651745651e-19,8.67361737988404e-19,-1.33765548018978
99.75,3.25260651745651e-19,8.67361737988404e-19,-1.53042919167823
99.8125,4.33680868994202e-19,4.33680868994202e-19,-1.6855186572644
99.875,4.33680868994202e-19,1.73472347597681e-18,-1.79910505959298
99.9375,4.33680868994202e-19,8.67361737988404e-19,-1.86839152446698
100,4.33680868994202e-19,0,-1.89167198917265
100.0625,4.33680868994202e-19,0,-1.86837321140549
100.125,2.16840434497101e-19,0,-1.79906888439842
100.1875,6.50521303491303e-19,8.67361737988404e-19,-1.68546551069012
100.25,3.25260651745651e-19,4.33680868994202e-19,-1.5303603823693
100.3125,2.16840434497101e-19,4.33680868994202e-19,-1.33757270245981
100.375,2.16840434497101e-19,0,-1.11184954346632
100.4375,3.25260651745651e-19,2.16840434497101e-19,-0.858748958695594
100.5,1.62630325872826e-19,6.50521303491303e-19,-0.584503124537465
100.5625,1.0842021724855e-19,0,-0.295864883598493
100.625,-6.61744490042422e-24,0,5.85326939599997e-05
100.6875,-1.0842021724855e-19,-1.0842021724855e-19,0.295980507717015
100.75,-1.0842021724855e-19,-4.33680868994202e-19,0.584614460337347
100.8125,-1.0842021724855e-19,0,0.858853264720019
100.875,-3.25260651745651e-19,-4.33680868994202e-19,1.11194425135449
100.9375,-3.25260651745651e-19,-8.67361737988404e-19,1.3376554801895
101,-4.33680868994202e-19,-8.67361737988404e-19,1.53042919167817
101.0625,-4.33680868994202e-19,-4.33680868994202e-19,1.68551865726435
101.125,-4.33680868994202e-19,-8.67361737988404e-19,1.79910505959305
101.1875,-2.16840434497101e-19,0,1.86839152446713
101.25,-4.33680868994202e-19,-8.67361737988404e-19,1.89167198917284
101.3125,-6.50521303491303e-19,0,1.86837321140572
101.375,-2.16840434497101e-19,0,1.79906888439858
101.4375,-2.16840434497101e-19,0,1.68546551069035
101.5,-4.33680868994202e-19,-4.33680868994202e-19,1.53036038236947
101.5625,-1.0842021724855e-19,-4.33680868994202e-19,1.33757270245975
101.625,-3.25260651745651e-19,-4.33680868994202e-19,1.11184954346617
101.6875,0,-2.16840434497101e-19,0.858748958695475
101.75,-1.0842021724855e-19,-4.33680868994202e-19,0.584503124537218
101.8125,-1.0842021724855e-19,-2.16840434497101e-19,0.295864883598211
101.875,6.61744490042422e-24,2.64697796016969e-23,-5.85326940091911e-05
101.9375,8.13151629364128e-20,2.16840434497101e-19,-0.295980507717266
102,5.42101086242752e-20,2.16840434497101e-19,-0.584614460337272
102.0625,2.16840434497101e-19,4.33680868994202e-19,-0.858853264719922
102.125,3.25260651745651e-19,4.33680868994202e-19,-1.11194425135457
102.1875,3.25260651745651e-19,4.33680868994202e-19,-1.33765548018947
102.25,4.33680868994202e-19,4.33680868994202e-19,-1.53042919167803
102.3125,4.33680868994202e-19,4.33680868994202e-19,-1.68551865726426
102.375,6.50521303491303e-19,8.67361737988404e-19,-1.79910505959293
102.4375,0,1.73472347597681e-18,-1.868391524467
102.5,4.33680868994202e-19,0,-1.89167198917277
102.5625,2.16840434497101e-19,0,-1.8683732114057
102.625,4.33680868994202e-19,8.67361737988404e-19,-1.79906888439869
102.6875,6.50521303491303e-19,4.33680868994202e-19,-1.68546551069039
102.75,6.50521303491303e-19,8.67361737988404e-19,-1.53036038236954
102.8125,2.16840434497101e-19,0,-1.33757270245988
102.875,3.25260651745651e-19,4.33680868994202e-19,-1.11184954346629
102.9375,2.16840434497101e-19,4.33680868994202e-19,-0.858748958695461
103,1.62630325872826e-19,2.16840434497101e-19,-0.584503124537377
103.0625,2.71050543121376e-20,0,-0.295864883598318
103.125,-6.61744490042422e-24,-2.64697796016969e-23,5.85326941785764e-05
103.1875,-5.42101086242752e-20,-2.16840434497101e-19,0.295980507717239
103.25,-1.0842021724855e-19,-2.16840434497101e-19,0.584614460337542
103.3125,-3.25260651745651e-19,0,0.858853264720163
103.375,-1.0842021724855e-19,-4.33680868994202e-19,1.11194425135471
103.4375,-3.25260651745651e-19,-8.67361737988404e-19,1.33765548018958
103.5,-3.25260651745651e-19,-4.33680868994202e-19,1.53042919167816
103.5625,-4.33680868994202e-19,-8.67361737988404e-19,1.68551865726423
103.625,-6.50521303491303e-19,-8.67361737988404e-19,1.79910505959285
103.6875,-2.16840434497101e-19,8.67361737988404e-19,1.86839152446692
103.75,-4.33680868994202e-19,-8.67361737988404e-19,1.89167198917266
103.8125,-4.33680868994202e-19,-8.67361737988404e-19,1.86837321140559
103.875,-4.33680868994202e-19,-8.67361737988404e-19,1.79906888439852
103.9375,-4.33680868994202e-19,0,1.68546551069029
104,-2.16840434497101e-19,-4.33680868994202e-19,1.53036038236948
104.0625,-4.33680868994202e-19,-4.33680868994202e-19,1.3375727024598
104.125,-2.16840434497101e-19,0,1.11184954346644
104.1875,-3.25260651745651e-19,-4.33680868994202e-19,0.858748958695664
104.25,-1.62630325872826e-19,-2.16840434497101e-19,0.584503124537388
104.3125,-5.42101086242752e-20,-2.16840434497101e-19,0.295864883598573
104.375,6.61744490042422e-24,2.64697796016969e-23,-5.85326939349428e-05
104.4375,2.71050543121376e-20,1.0842021724855e-19,-0.295980507717262
104.5,1.0842021724855e-19,2.16840434497101e-19,-0.584614460337519
104.5625,1.0842021724855e-19,4.33680868994202e-19,-0.858853264720167
104.625,2.16840434497101e-19,4.33680868994202e-19,-1.11194425135483
104.6875,2.16840434497101e-19,4.33680868994202e-19,-1.33765548018957
104.75,2.16840434497101e-19,0,-1.53042919167819
104.8125,4.33680868994202e-19,4.33680868994202e-19,-1.68551865726437
104.875,8.67361737988404e-19,8.67361737988404e-19,-1.79910505959289
104.9375,2.16840434497101e-19,0,-1.86839152446698
105,4.33680868994202e-19,0,-1.8916719891727
105.0625,4.33680868994202e-19,0,-1.8683732114056
105.125,4.33680868994202e-19,0,-1.79906888439849
105.1875,4.33680868994202e-19,4.33680868994202e-19,-1.68546551069017
105.25,3.25260651745651e-19,4.33680868994202e-19,-1.53036038236952
105.3125,3.25260651745651e-19,4.33680868994202e-19,-1.3375727024598
105.375,3.25260651745651e-19,4.33680868994202e-19,-1.11184954346626
105.4375,3.25260651745651e-19,2.16840434497101e-19,-0.858748958695743
105.5,1.0842021724855e-19,4.33680868994202e-19,-0.584503124537476
105.5625,2.71050543121376e-20,2.16840434497101e-19,-0.295864883598459
105.625,-2.64697796016969e-23,-2.64697796016969e-23,5.85326940142766e-05
105.6875,-8.13151629364128e-20,-2.16840434497101e-19,0.29598050771721
105.75,-1.0842021724855e-19,-2.16840434497101e-19,0.584614460337525
105.8125,-2.16840434497101e-19,-2.16840434497101e-19,0.858853264720173
105.875,-2.16840434497101e-19,-4.33680868994202e-19,1.11194425135465
105.9375,-5.42101086242752e-19,-4.33680868994202e-19,1.33765548018958
106,-6.50521303491303e-19,-4.33680868994202e-19,1.53042919167821
106.0625,-6.50521303491303e-19,-4.33680868994202e-19,1.68551865726431
106.125,-4.33680868994202e-19,-8.67361737988404e-19,1.79910505959297
106.1875,-2.16840434497101e-19,0,1.86839152446704
106.25,-4.33680868994202e-19,0,1.89167198917276
106.3125,-6.50521303491303e-19,0,1.86837321140564
106.375,-4.33680868994202e-19,0,1.79906888439852
106.4375,-6.50521303491303e-19,-4.33680868994202e-19,1.68546551069029
106.5,-6.50521303491303e-19,-4.33680868994202e-19,1.53036038236944
106.5625,-2.16840434497101e-19,-4.33680868994202e-19,1.33757270245972
106.625,-2.16840434497101e-19,0,1.11184954346634
106.6875,-1.0842021724855e-19,-4.33680868994202e-19,0.858748958695564
106.75,-1.62630325872826e-19,-2.16840434497101e-19,0.584503124537299
106.8125,-8.13151629364128e-20,0,0.295864883598376
106.875,1.32348898008484e-23,2.64697796016969e-23,-5.85326940921368e-05
106.9375,8.13151629364128e-20,2.16840434497101e-19,-0.295980507717369
107,1.0842021724855e-19,6.50521303491303e-19,-0.584614460337441
107.0625,2.16840434497101e-19,2.16840434497101e-19,-0.858853264720071
107.125,3.25260651745651e-19,4.33680868994202e-19,-1.11194425135472
107.1875,4.33680868994202e-19,4.33680868994202e-19,-1.33765548018945
107.25,4.33680868994202e-19,4.33680868994202e-19,-1.53042919167808
107.3125,4.33680868994202e-19,4.33680868994202e-19,-1.6855186572643
107.375,4.33680868994202e-19,0,-1.79910505959292
107.4375,4.33680868994202e-19,8.67361737988404e-19,-1.86839152446702
107.5,6.50521303491303e-19,8.67361737988404e-19,-1.89167198917275
107.5625,6.50521303491303e-19,8.67361737988404e-19,-1.86837321140568
107.625,2.16840434497101e-19,0,-1.79906888439858
107.6875,4.33680868994202e-19,4.33680868994202e-19,-1.68546551069027
107.75,3.25260651745651e-19,4.33680868994202e-19,-1.53036038236955
107.8125,5.42101086242752e-19,0,-1.33757270245985
107.875,2.16840434497101e-19,0,-1.11184954346628
107.9375,1.0842021724855e-19,2.16840434497101e-19,-0.858748958695581
108,1.0842021724855e-19,4.33680868994202e-19,-0.584503124537307
108.0625,5.42101086242752e-20,1.0842021724855e-19,-0.295864883598278
108.125,-1.98523347012727e-23,-2.64697796016969e-23,5.85326940014675e-05
108.1875,-8.13151629364128e-20,0,0.295980507717307
108.25,-1.62630325872826e-19,-2.16840434497101e-19,0.584614460337629
108.3125,-2.16840434497101e-19,-4.33680868994202e-19,0.858853264720065
108.375,-2.16840434497101e-19,-8.67361737988404e-19,1.11194425135473
108.4375,-3.25260651745651e-19,-4.33680868994202e-19,1.33765548018964
108.5,-4.33680868994202e-19,-4.33680868994202e-19,1.53042919167821
108.5625,-4.33680868994202e-19,0,1.68551865726439
108.625,-2.16840434497101e-19,0,1.79910505959301
108.6875,-6.50521303491303e-19,0,1.86839152446702
108.75,-4.33680868994202e-19,-1.73472347597681e-18,1.89167198917274
108.8125,-6.50521303491303e-19,-8.67361737988404e-19,1.8683732114056
108.875,-4.33680868994202e-19,-8.67361737988404e-19,1.79906888439857
108.9375,-4.33680868994202e-19,0,1.68546551069024
109,-4.33680868994202e-19,-4.33680868994202e-19,1.53036038236939
109.0625,-2.16840434497101e-19,0,1.33757270245979
109.125,-4.33680868994202e-19,-4.33680868994202e-19,1.11184954346618
109.1875,-1.0842021724855e-19,-2.16840434497101e-19,0.858748958695399
109.25,-2.71050543121376e-19,-2.16840434497101e-19,0.584503124537412
109.3125,-1.0842021724855e-19,-2.16840434497101e-19,0.295864883598328
109.375,1.32348898008484e-23,2.64697796016969e-23,-5.8532694137198e-05
109.4375,2.71050543121376e-20,1.0842021724855e-19,-0.295980507717143
109.5,1.62630325872826e-19,4.33680868994202e-19,-0.584614460337459
109.5625,2.16840434497101e-19,4.33680868994202e-19,-0.858853264720092
109.625,3.25260651745651e-19,4.33680868994202e-19,-1.11194425135474
109.6875,3.25260651745651e-19,4.33680868994202e-19,-1.33765548018958
109.75,3.25260651745651e-19,4.33680868994202e-19,-1.53042919167819
109.8125,4.33680868994202e-19,4.33680868994202e-19,-1.68551865726438
109.875,6.50521303491303e-19,0,-1.79910505959295
109.9375,4.33680868994202e-19,0,-1.86839152446703
110,6.50521303491303e-19,8.67361737988404e-19,-1.89167198917275
110.0625,6.50521303491303e-19,1.73472347597681e-18,-1.86837321140567
110.125,4.33680868994202e-19,8.67361737988404e-19,-1.79906888439857
110.1875,6.50521303491303e-19,4.33680868994202e-19,-1.68546551069026
110.25,4.33680868994202e-19,0,-1.53036038236945
110.3125,4.33680868994202e-19,0,-1.33757270245972
110.375,2.16840434497101e-19,4.33680868994202e-19,-1.11184954346614
110.4375,2.16840434497101e-19,2.16840434497101e-19,-0.858748958695524
110.5,1.0842021724855e-19,2.16840434497101e-19,-0.584503124537242
110.5625,5.42101086242752e-20,2.16840434497101e-19,-0.295864883598196
110.625,-1.32348898008484e-23,0,5.85326940315835e-05
110.6875,-5.42101086242752e-20,-1.0842021724855e-19,0.295980507717325
110.75,0,-2.16840434497101e-19,0.584614460337619
110.8125,-1.0842021724855e-19,-2.16840434497101e-19,0.858853264720156
110.875,-2.16840434497101e-19,-4.33680868994202e-19,1.11194425135479
110.9375,-3.25260651745651e-19,-4.33680868994202e-19,1.33765548018967
111,-3.25260651745651e-19,0,1.53042919167813
111.0625,-4.33680868994202e-19,-4.33680868994202e-19,1.68551865726432
111.125,-4.33680868994202e-19,-8.67361737988404e-19,1.79910505959294
111.1875,-4.33680868994202e-19,-8.67361737988404e-19,1.86839152446696
111.25,-4.33680868994202e-19,0,1.8916719891727
111.3125,-6.50521303491303e-19,-8.67361737988404e-19,1.86837321140561
111.375,-4.33680868994202e-19,-8.67361737988404e-19,1.79906888439854
111.4375,-6.50521303491303e-19,-4.33680868994202e-19,1.68546551069023
111.5,-2.16840434497101e-19,-8.67361737988404e-19,1.53036038236938
111.5625,-1.0842021724855e-19,0,1.33757270245982
111.625,-3.25260651745651e-19,0,1.11184954346625
111.6875,-3.25260651745651e-19,-4.33680868994202e-19,0.858748958695459
111.75,-2.16840434497101e-19,-2.16840434497101e-19,0.584503124537429
111.8125,-5.42101086242752e-20,-1.0842021724855e-19,0.295864883598383
111.875,1.32348898008484e-23,0,-5.85326941041653e-05
111.9375,5.42101086242752e-20,1.0842021724855e-19,-0.29598050771731
112,1.62630325872826e-19,2.16840434497101e-19,-0.584614460337625
112.0625,1.0842021724855e-19,2.16840434497101e-19,-0.858853264720259
112.125,4.33680868994202e-19,8.67361737988404e-19,-1.11194425135474
112.1875,4.33680868994202e-19,8.67361737988404e-19,-1.33765548018963
112.25,3.25260651745651e-19,4.33680868994202e-19,-1.53042919167823
112.3125,2.16840434497101e-19,4.33680868994202e-19,-1.68551865726429
112.375,2.16840434497101e-19,0,-1.79910505959292
112.4375,6.50521303491303e-19,0,-1.86839152446699
112.5,2.16840434497101e-19,0,-1.89167198917271
112.5625,2.16840434497101e-19,0,-1.86837321140559
112.625,4.33680868994202e-19,8.67361737988404e-19,-1.79906888439848
112.6875,4.33680868994202e-19,0,-1.68546551069026
112.75,3.25260651745651e-19,4.33680868994202e-19,-1.53036038236942
112.8125,1.0842021724855e-19,8.67361737988404e-19,-1.33757270245971
112.875,2.16840434497101e-19,4.33680868994202e-19,-1.11184954346638
112.9375,2.16840434497101e-19,6.50521303491303e-19,-0.858748958695588
113,2.71050543121376e-19,2.16840434497101e-19,-0.584503124537323
113.0625,8.13151629364128e-20,1.0842021724855e-19,-0.295864883598443
113.125,-1.32348898008484e-23,0,5.85326941004681e-05
113.1875,-1.0842021724855e-19,-1.0842021724855e-19,0.295980507717398
113.25,-5.42101086242752e-20,-2.16840434497101e-19,0.584614460337434
113.3125,-3.25260651745651e-19,0,0.858853264720141
113.375,-2.16840434497101e-19,-4.33680868994202e-19,1.1119442513548
113.4375,-5.42101086242752e-19,-4.33680868994202e-19,1.3376554801895
113.5,-4.33680868994202e-19,0,1.53042919167814
113.5625,-6.50521303491303e-19,-4.33680868994202e-19,1.68551865726434
113.625,-2.16840434497101e-19,-8.67361737988404e-19,1.79910505959297
113.6875,-4.33680868994202e-19,-8.67361737988404e-19,1.86839152446701
113.75,-2.16840434497101e-19,0,1.89167198917273
113.8125,-4.33680868994202e-19,0,1.86837321140558
113.875,-4.33680868994202e-19,0,1.79906888439852
113.9375,-4.33680868994202e-19,-8.67361737988404e-19,1.68546551069021
114,-3.25260651745651e-19,-8.67361737988404e-19,1.53036038236935
114.0625,-2.16840434497101e-19,-4.33680868994202e-19,1.33757270245981
114.125,-2.16840434497101e-19,0,1.11184954346625
114.1875,-2.16840434497101e-19,-2.16840434497101e-19,0.85874895869547
114.25,-1.62630325872826e-19,-2.16840434497101e-19,0.584503124537288
114.3125,-1.0842021724855e-19,-2.16840434497101e-19,0.295864883598257
114.375,1.32348898008484e-23,2.64697796016969e-23,-5.85326942180252e-05
114.4375,5.42101086242752e-20,2.16840434497101e-19,-0.295980507717292
114.5,2.16840434497101e-19,2.16840434497101e-19,-0.584614460337596
114.5625,2.16840434497101e-19,2.16840434497101e-19,-0.858853264720223
114.625,2.16840434497101e-19,0,-1.11194425135466
114.6875,5.42101086242752e-19,8.67361737988404e-19,-1.33765548018957
114.75,5.42101086242752e-19,4.33680868994202e-19,-1.53042919167818
114.8125,4.33680868994202e-19,0,-1.68551865726433
114.875,2.16840434497101e-19,0,-1.79910505959297
114.9375,4.33680868994202e-19,0,-1.86839152446702
115,4.33680868994202e-19,8.67361737988404e-19,-1.89167198917273
115.0625,4.33680868994202e-19,8.67361737988404e-19,-1.86837321140562
115.125,2.16840434497101e-19,0,-1.7990688843985
115.1875,4.33680868994202e-19,4.33680868994202e-19,-1.68546551069029
115.25,3.25260651745651e-19,4.33680868994202e-19,-1.53036038236945
115.3125,4.33680868994202e-19,4.33680868994202e-19,-1.33757270245974
115.375,2.16840434497101e-19,0,-1.11184954346625
115.4375,2.16840434497101e-19,2.16840434497101e-19,-0.858748958695457
115.5,1.0842021724855e-19,0,-0.584503124537184
115.5625,5.42101086242752e-20,1.0842021724855e-19,-0.295864883598368
115.625,-1.98523347012727e-23,-5.29395592033938e-23,5.85326941164054e-05
115.6875,-1.0842021724855e-19,-2.16840434497101e-19,0.295980507717405
115.75,-1.0842021724855e-19,-2.16840434497101e-19,0.584614460337453
115.8125,-2.16840434497101e-19,-4.33680868994202e-19,0.858853264720094
115.875,-1.0842021724855e-19,0,1.11194425135475
115.9375,-5.42101086242752e-19,-4.33680868994202e-19,1.33765548018958
116,-5.42101086242752e-19,-4.33680868994202e-19,1.53042919167818
116.0625,-4.33680868994202e-19,-4.33680868994202e-19,1.68551865726437
116.125,-4.33680868994202e-19,-8.67361737988404e-19,1.79910505959293
116.1875,-4.33680868994202e-19,-8.67361737988404e-19,1.868391524467
116.25,-4.33680868994202e-19,0,1.89167198917272
116.3125,-4.33680868994202e-19,-8.67361737988404e-19,1.86837321140564
116.375,-6.50521303491303e-19,0,1.79906888439856
116.4375,-4.33680868994202e-19,0,1.68546551069025
116.5,-3.25260651745651e-19,-4.33680868994202e-19,1.53036038236945
116.5625,-3.25260651745651e-19,-8.67361737988404e-19,1.33757270245974
116.625,-2.16840434497101e-19,0,1.11184954346616
116.6875,-3.25260651745651e-19,-2.16840434497101e-19,0.85874895869556
116.75,-1.0842021724855e-19,-4.33680868994202e-19,0.584503124537276
116.8125,-8.13151629364128e-20,-1.0842021724855e-19,0.295864883598228
116.875,1.32348898008484e-23,0,-5.85326939771061e-05
116.9375,5.42101086242752e-20,2.16840434497101e-19,-0.295980507717311
117,1.0842021724855e-19,2.16840434497101e-19,-0.584614460337624
117.0625,3.25260651745651e-19,2.16840434497101e-19,-0.85885326472012
117.125,4.33680868994202e-19,8.67361737988404e-19,-1.11194425135483
117.1875,3.25260651745651e-19,0,-1.33765548018971
117.25,5.42101086242752e-19,0,-1.53042919167813
117.3125,2.16840434497101e-19,8.67361737988404e-19,-1.68551865726435
117.375,6.50521303491303e-19,1.73472347597681e-18,-1.79910505959295
117.4375,4.33680868994202e-19,0,-1.86839152446696
117.5,6.50521303491303e-19,8.67361737988404e-19,-1.8916719891727
117.5625,2.16840434497101e-19,0,-1.86837321140558
117.625,2.16840434497101e-19,0,-1.79906888439847
117.6875,4.33680868994202e-19,4.33680868994202e-19,-1.6854655106902
117.75,4.33680868994202e-19,8.67361737988404e-19,-1.53036038236935
117.8125,1.0842021724855e-19,0,-1.33757270245964
117.875,2.16840434497101e-19,4.33680868994202e-19,-1.11184954346625
117.9375,2.16840434497101e-19,2.16840434497101e-19,-0.858748958695461
118,1.0842021724855e-19,2.16840434497101e-19,-0.584503124537454
118.0625,8.13151629364128e-20,1.0842021724855e-19,-0.295864883598404
118.125,-1.98523347012727e-23,-2.64697796016969e-23,5.85326940823466e-05
118.1875,-5.42101086242752e-20,-2.16840434497101e-19,0.295980507717383
118.25,-1.62630325872826e-19,-2.16840434497101e-19,0.584614460337607
118.3125,-2.16840434497101e-19,-2.16840434497101e-19,0.858853264720248
118.375,-3.25260651745651e-19,-4.33680868994202e-19,1.1119442513549
118.4375,-2.16840434497101e-19,-4.33680868994202e-19,1.33765548018963
118.5,-4.33680868994202e-19,-4.33680868994202e-19,1.53042919167823
118.5625,-6.50521303491303e-19,-4.33680868994202e-19,1.68551865726441
118.625,-4.33680868994202e-19,-8.67361737988404e-19,1.79910505959294
118.6875,-4.33680868994202e-19,0,1.86839152446701
118.75,-4.33680868994202e-19,0,1.89167198917272
118.8125,-8.67361737988404e-19,-8.67361737988404e-19,1.8683732114056
118.875,-6.50521303491303e-19,-8.67361737988404e-19,1.79906888439849
118.9375,-2.16840434497101e-19,-4.33680868994202e-19,1.68546551069015
119,-5.42101086242752e-19,-8.67361737988404e-19,1.53036038236941
