time,ax,ay,az
0,-0.000113098434582194,1.33875137442337e-05,-3.16568508168637
0.0625,-0.469696694491703,0.000297598145461665,-3.12604544553942
0.125,-0.927726053311043,0.00056027067160078,-3.0079261253441
0.1875,-1.36291679678819,0.000781789097401093,-2.81462094409101
0.25,-1.76454612815963,0.000944224345619766,-2.5514324533889
0.3125,-2.12271812204734,0.00103271180200736,-2.22545493466901
0.375,-2.42860854863303,0.00103726654257065,-1.84530482618798
0.4375,-2.67468299870644,0.00095478344536749,-1.42082014765204
0.5,-2.85488278968467,0.000790719998643594,-0.962749489065915
0.5625,-2.96477401288689,0.000559822603408535,-0.482448021415669
0.625,-3.00165608738139,0.000285349046882651,0.00840693142332971
0.6875,-2.96462727155619,-3.40063408076552e-06,0.498074067744241
0.75,-2.85460570633009,-0.000274909563987145,0.97497914152561
0.8125,-2.67430568478255,-0.000499828562187003,1.42792280901009
0.875,-2.42816993111987,-0.000654944371400007,1.84627240533117
0.9375,-2.12225970534618,-0.000725938525181715,2.22014582811152
1,-1.76410551458838,-0.0007085727780796,2.54059459413919
1.0625,-1.36252209882364,-0.000608393503429179,2.79979013767809
1.125,-0.927392161011421,-0.000439347333518707,2.99121311627351
1.1875,-0.469424022109875,-0.000221780372180556,3.10984066256044
1.25,0.000111008917283873,1.97973671563002e-05,3.15232202177967
1.3125,0.469655262385432,0.000258964655336314,3.11712963659735
1.375,0.927648672143935,0.000469591912658135,3.00467109360094
1.4375,1.36281318325729,0.000628012993843199,2.81734776775052
1.5,1.76443063066896,0.000715185073422633,2.55954851199149
1.5625,2.12260720576031,0.000718772227069659,2.237571043724
1.625,2.42851789578929,0.000634943303997049,1.85946921761965
1.6875,2.67462473208362,0.000469521171294148,1.43483040941474
1.75,2.85486331190286,0.000238043746473232,0.974492969256942
1.8125,2.96479285162713,-3.56104279643507e-05,0.490218394223609
1.875,3.00170596196158,-0.000322077405294897,-0.00566405959676564
1.9375,2.96469537895527,-0.00059044832231923,-0.500621487732915
2,2.85467600341488,-0.000812503554221009,-0.982272217087317
2.0625,2.67436175941944,-0.000966305034546883,-1.4387161526067
2.125,2.4281979436645,-0.00103841523212376,-1.85882923563324
2.1875,2.12225086622192,-0.00102447285330056,-2.2325152711844
2.25,1.76405764759442,-0.000928353465153402,-2.55091297065017
2.3125,1.36244000807293,-0.000760467342240855,-2.80655998019875
2.375,0.927286739791518,-0.000535809870247261,-2.99351842227009
2.4375,0.469310272220367,-0.000272230239490585,-3.10746777731896
2.5,-0.000216682099323138,1.08620052230331e-05,-3.1457707308404
2.5625,-0.469737986665683,0.000293369325714591,-3.10751610472583
2.625,-0.927697748863027,0.000555141404573846,-2.99354058260144
2.6875,-1.36282396308195,0.000776637603538887,-2.80642815891774
2.75,-1.76440529953091,0.000939875088467389,-2.55048366857344
2.8125,-2.12255435364633,0.00102982886454502,-2.23167491741429
2.875,-2.42845095753777,0.0010362723356438,-1.8575372337298
2.9375,-2.67455958562702,0.000955804155182387,-1.43703490657265
3,-2.85481546206098,0.000793562483974893,-0.980375958672818
3.0625,-2.96477469392676,0.000563991220001577,-0.498779795812108
3.125,-3.00172460211884,0.000290109914353391,-0.00420107970607053
3.1875,-2.96475138477483,1.09140642510575e-06,0.490982826812559
3.25,-2.85476330446702,-0.000271530362059503,0.974309844016842
3.3125,-2.67446871279561,-0.000498236618238503,1.43358279405037
3.375,-2.42830938354374,-0.000655513260208108,1.85721529501375
3.4375,-2.12235078377134,-0.000728657105421247,2.23455844372124
3.5,-1.764132034713,-0.000713026051145168,2.55619411427414
3.5625,-1.36247936408638,-0.000613814869593176,2.81418326323698
3.625,-0.927287792698246,-0.000444738072745458,3.00226109216439
3.6875,-0.469276599179399,-0.000226081414645554,3.1159748154381
3.75,0.000275257783125327,1.75067540057934e-05,3.15276362150918
3.8125,0.469807125929132,0.000259275355329745,3.11198374226027
3.875,0.927761152839989,0.000472619222301811,2.99488400456374
3.9375,1.3628662987462,0.000633332828779174,2.80453862625826
4,1.76441496647404,0.000721877095319104,2.54574430433687
4.0625,2.12252558742149,0.000725574921298084,2.22488796330388
4.125,2.42838488296854,0.000640500016479655,1.84979016267466
4.1875,2.67446402469181,0.000472669675260011,1.42952747030886
4.25,2.85470352996466,0.0002380830665856,0.974235486719656
4.3125,2.9646624402257,-3.87452597888859e-05,0.494893013350933
4.375,3.00162812849041,-0.00032778438565241,0.00308736236843532
4.4375,2.96468396415434,-0.00059758672841408,-0.489238857388091
4.5,2.85473302123385,-0.000819651894841928,-0.97005798818818
4.5625,2.67447704329342,-0.000972081038756609,-1.42754130010589
4.625,2.42835096138582,-0.00104177329876082,-1.850351194366
4.6875,2.12241437925129,-0.00102490502232568,-2.22793390004247
4.75,1.76420256231602,-0.00092595299890268,-2.55080303275731
4.8125,1.36254055467838,-0.000755855600123392,-2.81080314640253
4.875,0.927325056796031,-0.000529962087023056,-3.00134207044758
4.9375,0.469279581125102,-0.000266254252323275,-3.11758150097122
5,-0.000310875987985287,1.59398618826022e-05,-3.15657697832717
5.0625,-0.469878879696983,0.00029677044728103,-3.11736087904822
5.125,-0.927860234217438,0.000556432420528146,-3.00096510566937
5.1875,-1.36297910179402,0.000775757556276202,-2.81038343835016
5.25,-1.76452547133501,0.000937104387101758,-2.5504766601082
5.3125,-2.12261817111686,0.00102571807752295,-2.22782625844745
5.375,-2.42844706948268,0.00103154774732358,-1.85054449166231
5.4375,-2.67448869355949,0.000951261896160063,-1.42804974752671
5.5,-2.85469019161301,0.00078995838964702,-0.9708163972864
5.5625,-2.96461734471789,0.00056193294871614,-0.490107859115611
5.625,-3.00156317698042,0.000289961644781561,0.00229947052072998
5.6875,-2.96461460522945,2.90620771740361e-06,0.494395123166298
5.75,-2.85467549954089,-0.00026803454303621,0.974211402898585
5.8125,-2.67444549055654,-0.000493647025786302,1.43009444363078
5.875,-2.42835485527629,-0.000650638440972823,1.85096651837498
5.9375,-2.12245683429539,-0.00072439975354233,2.2265768972107
6,-1.76427976825656,-0.000710231072519506,2.54773830597589
6.0625,-1.36264246813266,-0.000613115460560785,2.80654539347459
6.125,-0.927437221152106,-0.000446424444756555,2.9965707523437
6.1875,-0.46938574163589,-0.000230016635926256,3.11303318543479
6.25,0.00022584029199939,1.19024156684293e-05,3.1529323021886
6.3125,0.469826241257909,0.000252957810078701,3.11514337453334
6.375,0.927845409799439,0.000466770878588181,3.00046682259952
6.4375,1.36300071019629,0.00062914658577338,2.81162779396154
6.5,1.76457561651992,0.000720309687232452,2.55322300734909
6.5625,2.12268388841408,0.000727120685770214,2.23161422333487
6.625,2.42851266481114,0.000645041980330887,1.85477017897503
6.6875,2.67453855042984,0.000479455902731827,1.43206133640482
6.75,2.85471154439998,0.000245850717566329,0.974014094582335
6.8125,2.96460253026092,-3.15136881066866e-05,0.492032973429975
6.875,3.00151097455046,-0.000322528120981548,-0.00189946718095024
6.9375,2.96453043779502,-0.00059534034785442,-0.495534653918516
7,2.85457046789669,-0.000820812233304864,-0.97667179231339
7.0625,2.67433441258936,-0.000976329441307036,-1.43346400016697
7.125,2.42825365255608,-0.00104817005445548,-1.85470857681241
7.1875,2.12237971994554,-0.00103212339345933,-2.23011469425965
7.25,1.76423672561268,-0.000932584326560633,-2.550543354142
7.3125,1.3626374626902,-0.000760705416014314,-2.80821589205382
7.375,0.927467465176211,-0.000532270121594218,-2.99688848634069
7.4375,0.469442150509812,-0.000265800053557416,-3.1119909627923
7.5,-0.000157068961751718,1.88511240660739e-05,-3.15072867204138
7.5625,-0.469761194905261,0.000301420302321136,-3.11214641216454
7.625,-0.927799599983363,0.000561861752943889,-2.9971533876745
7.6875,-1.36298629205604,0.000780957604342504,-2.80850818186189
7.75,-1.76459918993725,0.000941189656078822,-2.5507628215175
7.8125,-2.1227452836231,0.00102805628410069,-2.23016535955799
7.875,-2.42860494099939,0.00103183512774011,-1.85452107662817
7.9375,-2.67464921655817,0.000949543306284141,-1.4330134334937
8,-2.85482478721085,0.000786598451437698,-0.975987254009469
8.0625,-2.96470204773425,0.000557547310019218,-0.494698186114074
8.125,-3.00158290015187,0.0002853184470772,-0.00103413219577109
8.1875,-2.96456582393871,-1.19058875649742e-06,0.492784108405598
8.25,-2.85456687936945,-0.000270865901556594,0.974514452881337
8.3125,-2.67429634593784,-0.000494688068012257,1.43220799237031
8.375,-2.42819171338866,-0.000649641865528803,1.85451651313109
8.4375,-2.12230871542682,-0.000721442923955373,2.23098349085255
8.5,-1.76417302222437,-0.00070572054633472,2.55230969766954
8.5625,-1.36259608534663,-0.000607745937842361,2.81058575625187
8.625,-0.927459452541285,-0.000441091778017782,2.99948551177906
8.6875,-0.469472628936436,-0.000225688704456957,3.11441581908086
8.75,8.976209364796e-05,1.43459519598647e-05,3.15262009987828
8.8125,0.469665193845773,0.000252896066893512,3.1132346695371
8.875,0.92768806261249,0.000463992098852921,2.99729825242123
8.9375,1.36287507897191,0.000623942168713355,2.8077162335974
9,1.76450407692846,0.000713478322168342,2.54918201659923
9.0625,2.12267919235421,0.000719862376139283,2.22805840430549
9.125,2.42857566888379,0.000638745705714445,1.85222226266937
9.1875,2.67465806158194,0.000475414885053411,1.43087595761765
9.25,2.85486631083051,0.000244967070201281,0.974329270969967
9.3125,2.964765023528,-2.8958719805224e-05,0.493755785350401
9.375,3.00165228958068,-0.000316969988672413,0.000928135849497025
9.4375,2.96462543818813,-0.000587856664290265,-0.492062925708953
9.5,2.85460226015644,-0.000812889130909643,-0.973100044828818
9.5625,2.67429735252815,-0.000969527367002029,-1.43033503282361
9.625,2.42815434876245,-0.00104377696441537,-1.85248189131381
9.6875,2.1222358561412,-0.00103088427149716,-2.22909956639996
9.75,1.76407391222204,-0.000934569553636539,-2.55085662854356
9.8125,1.3624846786907,-0.000765338322507031,-2.80977013193043
9.875,0.927351901839967,-0.00053849174923614,-2.99941135297529
9.9375,0.469384374542427,-0.000272319383331643,-3.11507195342022
10,-0.00014677273832465,1.32848904435151e-05,-3.15388532713432
10.0625,-0.469684651365314,0.000297781659089673,-3.11489939890209
10.125,-0.927670417558702,0.000560690586966881,-2.99909884470934
10.1875,-1.36282744115595,0.000782298450487821,-2.80937647493861
10.25,-1.76443891683594,0.00094462690012341,-2.55045524066012
10.3125,-2.12261208647489,0.00103282667976986,-2.22876387774651
10.375,-2.42852250126677,0.00103698853220855,-1.85227050825744
10.4375,-2.67463218705875,0.000954119081003131,-1.43027952195777
10.5,-2.85487618576734,0.000789787427103896,-0.973197748939745
10.5625,-2.9648127200337,0.00055881558451776,-0.492276328369699
10.625,-3.0017331475411,0.000284477717459876,0.000665172173260009
10.6875,-2.96472890687103,-3.97199246044604e-06,0.493525860699891
10.75,-2.85471377355241,-0.000275107267561288,0.974215456757714
10.8125,-2.67440090530565,-0.000499683077457553,1.43094484511619
10.875,-2.4282353215386,-0.000654569970304797,1.85250920700941
10.9375,-2.1222835980426,-0.000725487630489838,2.22855783891027
11,-1.76408363110549,-0.000708181529042845,2.54984490152714
11.0625,-1.36245830762018,-0.000608137251747246,2.80845548811165
11.125,-0.927297785453401,-0.000439220705258346,2.99800161035724
11.1875,-0.469315822512134,-0.000221707777734033,3.1137830294766
11.25,0.000213819621893456,1.9925284926089e-05,3.15290836394744
11.3125,0.469734438086116,0.00025924179120487,3.11437262464195
11.375,0.927690179688374,0.000470052109630033,2.99908828092578
11.4375,1.3628096979096,0.000628606178409947,2.80986813830625
11.5,1.76438283718688,0.000715783645351775,2.55135967079119
11.5625,2.12252367392811,0.000719207328414309,2.22993193481167
11.625,2.42841355287563,0.000635060288581082,1.85351771288172
11.6875,2.6745182043336,0.000469236239797931,1.43141500121966
11.75,2.85477360840959,0.00023738203254039,0.974053274993351
11.8125,2.96473598093,-3.65099991974207e-05,0.492731058433612
11.875,3.00169208362231,-0.000322994683847082,-0.000667863558098447
11.9375,2.96472699702413,-0.000591143512522144,-0.493971762250145
12,2.85474752309235,-0.000812788935725754,-0.975023805988903
12.0625,2.67446048542064,-0.000966103466938231,-1.43198254205802
12.125,2.42830634208567,-0.00103778556393407,-1.85361250840507
12.1875,2.12234968684144,-0.00102359300131482,-2.22955802860178
12.25,1.76412935056178,-0.000927466085658402,-2.55059393761217
12.3125,1.36247188503939,-0.000759805493943413,-2.80884775169096
12.375,0.927273174213667,-0.000535526407397588,-2.99798858679875
12.4375,0.46925373698769,-0.000272353006411417,-3.11337891683242
12.5,-0.000306066777898335,1.04356609299184e-05,-3.15218603478755
12.5625,-0.46984425603651,0.000292837500297841,-3.11345084268844
12.625,-0.927801936008738,0.000554733087025416,-2.99811236824931
12.6875,-1.36290747502435,0.000776538538465868,-2.80898721234169
12.75,-1.76445322630886,0.000940167069626737,-2.55070399467268
12.8125,-2.12255812157796,0.00103046176355466,-2.22959380047934
12.875,-2.42840985454516,0.00103707826841741,-1.85353863935414
12.9375,-2.67448088717718,0.000956549676628785,-1.43178099211287
13,-2.8547131353099,0.000794021863408644,-0.974698608808972
13.0625,-2.96466691074851,0.000564016438858926,-0.493549781358646
13.125,-3.00163050378817,0.000289674201537308,-0.0001952884224935
13.1875,-2.96468767434201,2.92666222024857e-07,0.493195964414036
13.25,-2.85474127353893,-0.000272505700891125,0.974449967894651
13.3125,-2.67449223203372,-0.000499175457011943,1.43169129039242
13.375,-2.42837421450951,-0.000656241689261813,1.85363933162359
13.4375,-2.12244533440509,-0.000729088505081604,2.2298892758034
13.5,-1.7642394236817,-0.000713176781308965,2.5511703642783
13.5625,-1.36258042627934,-0.000613784344258407,2.80957484870892
13.625,-0.92736449075416,-0.000444661837234404,2.99875192710363
13.6875,-0.469315233835969,-0.000226074270241928,3.11406204900083
13.75,0.000281609761308296,1.73978932604531e-05,3.15268814257745
13.8125,0.469857379941275,0.000259092791119533,3.11370150882573
13.875,0.927846409824705,0.000472482405908324,2.99808129871486
13.9375,1.36297142926197,0.000633396156479293,2.80868760369546
14,1.76452130359993,0.000722270876749122,2.55018922738834
14.0625,2.12261424929949,0.000726349108985029,2.22894815940933
14.125,2.42844013371196,0.00064159060032775,1.8528636439053
14.1875,2.67447607546285,0.000473901368320762,1.43117953441328
14.25,2.85467028156922,0.000239210492283238,0.97425936306371
14.3125,2.96458985692903,-3.79687727756037e-05,0.493334232278943
14.375,3.00152917642325,-0.000327531614521291,0.000229259973303364
14.4375,2.96457630326611,-0.000597899823499237,-0.492925135555551
14.5,2.85463586171292,-0.000820424105023614,-0.97399035732953
14.5625,2.67440772614792,-0.000973084708897357,-1.43111805219452
14.625,2.42832187194378,-0.00104272640309409,-1.85304252380969
14.6875,2.12243074296483,-0.00102555518750009,-2.22935980079242
14.75,1.76426151506181,-0.000926151942426843,-2.55078620592719
14.8125,1.36263165279553,-0.000755600365517872,-2.80938967689134
14.875,0.927432135855277,-0.000529390777247563,-2.9987877205397
14.9375,0.469383632498325,-0.000265598707496027,-3.1143067299944
15,-0.000228322647714723,1.64288904129141e-05,-3.15309842990931
15.0625,-0.469832469832168,0.000296902368744607,-3.11421040022031
15.125,-0.927858182248005,0.00055613622083985,-2.9986089123938
15.1875,-1.36302172911276,0.00077510378707752,-2.80915363920916
15.25,-1.76460514857305,0.000936283095644542,-2.55052511369479
15.3125,-2.12272067510445,0.00102497932828872,-2.22910706373693
15.375,-2.42855411367828,0.00103112317783856,-1.85282689335222
15.4375,-2.67458118187963,0.00095129227493764,-1.43095858806863
15.5,-2.85475161673883,0.000790450680432755,-0.973893170895251
15.5625,-2.96463672607673,0.00056276071866689,-0.492882519150687
15.625,-3.0015370153919,0.000290907849180684,0.000237127272802451
15.6875,-2.96454750616522,3.73290799245011e-06,0.493335270520549
15.75,-2.85457935394161,-0.000267513636947932,0.974283955266965
15.8125,-2.6743373589582,-0.000493515152847847,1.43125425946565
15.875,-2.42825393185611,-0.000650861096910229,1.85300550558385
15.9375,-2.12238103122055,-0.000724849119480521,2.22916037917028
16,-1.76424252824612,-0.000710738841387634,2.55045942009942
16.0625,-1.36265037243066,-0.000613534599074947,2.80898875708236
16.125,-0.927488818464833,-0.000446678632591307,2.99837549460906
16.1875,-0.469471806276214,-0.000230121322911345,3.11394583881717
16.25,0.000120667082813582,1.18533791464131e-05,3.15284186617777
16.3125,0.469720718850386,0.000252834589521202,3.11409379075716
16.375,0.927758360653582,0.000466464351614476,2.99864565775567
16.4375,1.36294767095624,0.000628619816012548,2.80933355895732
16.5,1.76456607346934,0.00071962590671011,2.55081669634744
16.5625,2.12271958917621,0.00072643652803365,2.22946287264776
16.625,2.42858730681564,0.000644565737014054,1.85319121632859
16.6875,2.67463890177943,0.000479382478453347,1.43127610694422
16.75,2.85481979788553,0.000246293864240739,0.974117310028975
16.8125,2.96469947175386,-3.05687377704688e-05,0.492982220795527
16.875,3.00157940196295,-0.000321233825294483,-0.000273177267064106
16.9375,2.96455822211607,-0.000593952001852055,-0.49349752840453
17,2.85455271148376,-0.000819618094315955,-0.974544091031597
17.0625,2.6742743205974,-0.000975567393809903,-1.43157000520538
17.125,2.42816196248819,-0.00104795787651223,-1.85332746405196
17.1875,2.1222727909807,-0.00103242570820799,-2.22943970437963
17.25,1.76413362786837,-0.000933227082031536,-2.55065518286875
17.3125,1.36255658444384,-0.000761432826110465,-2.80907389187368
17.375,0.927423241678697,-0.000532825330396758,-2.99834047172239
17.4375,0.469442496228494,-0.000266003931386042,-3.11379957560731
17.5,-0.000112168071731906,1.90470739346584e-05,-3.15260982289086
17.5625,-0.469679678853433,0.000301922274151605,-3.11381362370244
17.625,-0.927695922441768,0.000562465894683822,-2.99836116042648
17.6875,-1.36287884946412,0.000781415907036193,-2.809087858407
17.75,-1.76450704917864,0.000941289273060279,-2.55064575549655
17.8125,-2.12268479021526,0.00102768788484215,-2.22939027127826
17.875,-2.42858681109337,0.00103102888355073,-1.8532249609415
17.9375,-2.674676630135,0.000948460959760212,-1.43140789042189
18,-2.85489282188051,0.000785484041660684,-0.974324259112485
18.0625,-2.96479855408777,0.000556652910058555,-0.493230792261724
18.125,-3.0016906630875,0.000284829622960442,2.18053599680967e-05
18.1875,-2.96466562546288,-1.20527363479516e-06,0.493281430279003
18.25,-2.85464091786081,-0.000270465964728283,0.974394861514003
18.3125,-2.67433140338305,-0.000494031354820968,1.43150818017999
18.375,-2.42818150696898,-0.00064892627906876,1.85335975043353
18.4375,-2.12225501505374,-0.000720840713045082,2.22955838368171
18.5,-1.76408533529979,-0.000705327371799694,2.55083971294087
18.5625,-1.36248996500977,-0.000607560596444021,2.80929439840551
18.625,-0.927353730551098,-0.000441031275462512,2.99856254478967
18.6875,-0.469386065557303,-0.000225631372430798,3.11398960693795
18.75,0.000141815252743085,1.45054987991984e-05,3.15274006087743
18.8125,0.469673524499302,0.000253199619111986,3.11386619069723
18.875,0.927651236354216,0.000464394724063465,2.99833045650778
18.9375,1.36279969432242,0.00062432177495772,2.80898103705478
19,1.76440359149286,0.000713675707984539,2.55048125751039
19.0625,2.12257152881605,0.000719739249179266,2.22919469713873
19.125,2.42848002660909,0.000638241370388738,1.85302880445691
19.1875,2.674591500993,0.000474581460242963,1.43124081280137
19.25,2.85484071823997,0.000243969021744845,0.974210631549677
19.3125,2.96478499652164,-2.98836427893271e-05,0.493186172548306
19.375,3.00171431927632,-0.000317578111999617,7.24208187674602e-06
19.4375,2.96471853390028,-0.000587973156430836,-0.493185329958141
19.5,2.85470990525732,-0.000812465354702556,-0.974248256212603
19.5625,2.67440044335354,-0.000968660638147567,-1.43133475067528
19.625,2.42823459348159,-0.00104268466808007,-1.85318651621081
19.6875,2.12227902874751,-0.0010298397677486,-2.22941151872482
19.75,1.76407238273714,-0.000933820390928011,-2.5507406156179
19.8125,1.36243876962557,-0.000765033082089063,-2.8092566017488
19.875,0.927269829894762,-0.000538638509164503,-2.99858990877269
19.9375,0.469280788216841,-0.000272788071016582,-3.11407602726648
20,-0.000253399285804502,1.27179651636828e-05,-3.15287069252752
20.0625,-0.469775304584785,0.000297361481956691,-3.11401995553692
20.125,-0.927728926447949,0.000560605623821503,-2.9984834172186
20.1875,-1.36284335346775,0.000782620937107265,-2.80911010124649
20.25,-1.76440935807462,0.000945289391018993,-2.55056764221074
20.3125,-2.12254227103639,0.00103364219868639,-2.22922663727717
20.375,-2.42842480472216,0.0010377082822217,-1.85300311883586
20.4375,-2.67452394447989,0.000954509602658676,-1.43116312541359
20.5,-2.85477660766165,0.000789702446532926,-0.974094255446007
20.5625,-2.96473947454235,0.000558239359082219,-0.493049865377724
20.625,-3.00169921704773,0.000283526381121104,0.000127793363575046
20.6875,-2.96474027840684,-5.09015149281668e-06,0.49329872405138
20.75,-2.85476837400717,-0.000276157886408421,0.974323525769735
20.8125,-2.67448897087751,-0.000500475304604012,1.4313616725727
20.875,-2.42834113555552,-0.000655006778878097,1.85316248317763
20.9375,-2.122388287751,-0.000725581828710209,2.22934170319095
21,-1.7641685256236,-0.000708034756105654,2.55063695288788
21.0625,-1.36250825951901,-0.00060789170712898,2.80913578184876
21.125,-0.927303865060604,-0.000439001796199808,2.99847071040303
21.1875,-0.469276905780548,-0.00022157779853873,3.11397641663813
21.25,0.000290851927116469,1.99870279039063e-05,3.15280513262464
21.3125,0.469835925108603,0.000259326360737523,3.11399732609951
21.375,0.927798111128645,0.000470280682323449,2.99850584136084
21.4375,1.36290491820453,0.000629076180171599,2.80917282867484
21.5,1.76444845328491,0.000716520093721197,2.55065997479089
21.5625,2.12254806049629,0.000720137120592343,2.22933372558711
21.625,2.42839242032372,0.00063602028157937,1.85310833187253
21.6875,2.6744553616931,0.000470015035834275,1.43125061798432
21.75,2.85468028527373,0.00023778368517303,0.974151339232739
21.8125,2.96462882906416,-3.66006688587968e-05,0.493068831240435
21.875,3.00159021385519,-0.000323567568492667,-0.000148660690323932
21.9375,2.96464857876051,-0.000592056294775893,-0.493355067821796
22,2.85470655163689,-0.000813802612525363,-0.974405759150593
22.0625,2.67446429238476,-0.000966950708805175,-1.43145658555995
22.125,2.42835429179953,-0.00103825044990557,-1.85325534850968
22.1875,2.1224332905108,-0.00102357606021716,-2.22941854789306
22.25,1.76423377754768,-0.000927013209283794,-2.55068664714473
22.3125,1.36257860206196,-0.000759091447167754,-2.80915163505907
22.375,0.927363242732546,-0.000534798658410363,-2.99845134813697
22.4375,0.469311182117544,-0.000271854046861639,-3.11392582773554
22.5,-0.000291414990312811,1.0543268482291e-05,-3.15273190441839
22.5625,-0.469874954172558,0.000292520652975748,-3.11391320787497
22.625,-0.927872473146732,0.000554097613453266,-2.9984238734203
22.6875,-1.36300525357055,0.000775795982522986,-2.80910533283138
22.75,-1.7645608033109,0.000939568859673629,-2.55061671411195
22.8125,-2.12265631190382,0.00103022083996297,-2.22932050633928
22.875,-2.42848114399434,0.0010373025341622,-1.85312624556473
22.9375,-2.67451254837194,0.000957208411236522,-1.43129601871687
23,-2.85469949197503,0.000794955862890948,-0.97421653758297
23.0625,-2.96461034741679,0.000564988189696441,-0.493143378213497
23.125,-3.00154104118198,0.000290440960851921,7.63114657198471e-05
23.1875,-2.96458118596269,6.77967727185855e-07,0.493295782237245
23.25,-2.85463666087324,-0.000272565183614007,0.974368101244955
23.3125,-2.67440806115888,-0.000499621433675389,1.43144559291956
23.375,-2.42832541270953,-0.000656924407366937,1.85327187752195
23.4375,-2.12244053464329,-0.000729822996050029,2.22945927059408
23.5,-1.76427942935505,-0.000713804833489099,2.55074468045587
23.5625,-1.36265806921057,-0.000614221259714965,2.80921768821621
23.625,-0.927465907415069,-0.000444913408199414,2.99851519925081
23.6875,-0.469422332496807,-0.000226220159167156,3.11397789640231
23.75,0.000187930025859463,1.72468494422671e-05,3.15276467984369
23.8125,0.469793831071326,0.000258847484160333,3.1139223210952
23.875,0.927824341866092,0.000472119672645101,2.99840866239387
23.9375,1.36299481148628,0.000632978377132816,2.80906883038023
24,1.76458601873269,0.000721933027845146,2.55056507801285
24.0625,2.12270882640749,0.000726256110694178,2.22926199455528
24.125,2.42854778940721,0.000641878161601597,1.85306990519728
24.1875,2.67457770030718,0.000474620138668004,1.43125029539677
24.25,2.85474784032708,0.000240293639829425,0.974188017776119
24.3125,2.96462959759847,-3.67010895688177e-05,0.493135850406881
24.375,3.00152407695227,-0.00032632928052088,-6.23445243620457e-05
24.4375,2.96452732052895,-0.000597012996395687,-0.493263080202451
24.5,2.85455176053598,-0.000820028431046295,-0.974322170705288
24.5625,2.67430351895942,-0.000973226355637929,-1.43139377252838
24.625,2.42821614693174,-0.00104330609160188,-1.85322217398132
24.6875,2.12234235640159,-0.00102635763603164,-2.22941912885263
24.75,1.76420623647629,-0.000926911783300951,-2.55071987589287
24.8125,1.36261935987123,-0.000756083400868113,-2.80921150450187
24.875,0.927465057927705,-0.000529464750881736,-2.99852800748624
24.9375,0.469455954847434,-0.000265271755165627,-3.11400718703135
25,-0.000129423602235524,1.70133242342666e-05,-3.15280552886059
25.0625,-0.469724544768883,0.00029751193846913,-3.11396820699814
25.125,-0.927760386551418,0.000556523017837308,-2.99845249984613
25.1875,-1.36295141520363,0.000775082438364562,-2.8091040578339
25.25,-1.76457477902454,0.00093578999175924,-2.55058663331063
25.3125,-2.12273560559942,0.00102409469567956,-2.22926703447266
25.375,-2.4286116402361,0.00103004875999657,-1.85305816794205
25.4375,-2.67467102196784,0.000950291269577073,-1.43122406209269
25.5,-2.85485773881458,0.000789768981392872,-0.974151690887704
25.5625,-2.96474020213396,0.000562554908153692,-0.493095224395778
25.625,-3.00161938895625,0.000291203023331252,0.000101000798757522
25.6875,-2.96459407635909,4.42291523484019e-06,0.493293985004581
25.75,-2.85458179113884,-0.000266625637483191,0.974340888275496
25.8125,-2.67429518653304,-0.000492651233256912,1.43139784262296
25.875,-2.42817461040683,-0.000650200967251524,1.85321142393724
25.9375,-2.12227863043812,-0.000724482410367655,2.22939563063071
26,-1.76413522296916,-0.000710651243504785,2.55068756531052
26.0625,-1.36255720861538,-0.000613629714214834,2.80917553035945
26.125,-0.927426324583069,-0.00044682546916259,2.99849391704319
26.1875,-0.469451052997378,-0.00023020953288675,3.11398007579678
26.25,9.60359597192337e-05,1.18699852568092e-05,3.15278928420921
26.3125,0.469655134097038,0.000252920987235901,3.1139649570658
26.375,0.927663538869045,0.000466519264198053,2.99846234481121
26.4375,1.36284052976069,0.000628517518015187,2.80912511571998
26.5,1.76446572150222,0.000719270571995974,2.5506153839615
26.5625,2.12264392633301,0.000725810050714896,2.22929890077965
26.625,2.42854983954004,0.000643751209034399,1.85308823937161
26.6875,2.67464634004896,0.000478552834038675,1.43124784689532
26.75,2.85487086151938,0.000245666668667162,0.974165782435799
26.8125,2.96478511851279,-3.07973808699787e-05,0.493097783510487
26.875,3.00168443687268,-0.000320954950958258,-0.000110014915478795
26.9375,2.96466400158237,-0.000593186354644804,-0.49331286259385
27,2.85464046088576,-0.000818519446619339,-0.97436648000175
27.0625,2.67432847487291,-0.000974383161572915,-1.43142607879629
27.125,2.4281729352132,-0.00104695821903609,-1.85323795723838
27.1875,2.12223867928781,-0.00103182355004745,-2.22941650148041
27.25,1.76406055006268,-0.000933115014741233,-2.55069978864473
27.3125,1.36245759055567,-0.000761757272078673,-2.80917751750596
27.375,0.927315991080955,-0.000533405950408701,-2.99848567391687
27.4375,0.469346115669801,-0.00026659171976864,-3.11396315420029
27.5,-0.000180487046845385,1.86913357575729e-05,-3.15276650102034
27.5625,-0.46970773792478,0.000301953217983879,-3.11393993070652
27.625,-0.927678686168426,0.000562904917046783,-2.99843892450181
27.6875,-1.36281934076447,0.000782143295630837,-2.80910679294746
27.75,-1.76441581138055,0.000942079723791883,-2.55060477559719
27.8125,-2.12257801130129,0.00102827901396626,-2.22929737978696
27.875,-2.42848344370104,0.00103120193296543,-1.8530957644852
27.9375,-2.67459501956808,0.000948108483459345,-1.43126301106896
28,-2.85484744203263,0.000784642991931117,-0.974186066217431
28.0625,-2.96479743210982,0.000555492671926708,-0.493119968958392
28.125,-3.00173395116149,0.000283599599692308,8.9337101065512e-05
28.1875,-2.96474557392357,-2.25043551834673e-06,0.493296772133556
28.25,-2.85474325446689,-0.000271138533633837,0.97435727143427
28.3125,-2.67443787322108,-0.000494257101033142,1.43142493813105
28.375,-2.42827312088127,-0.00064875228313729,1.85324481580458
28.4375,-2.12231542842022,-0.000720404792659085,2.22943008379228
28.5,-1.76410375590734,-0.000704802107808274,2.55071784126093
28.5625,-1.36246307268124,-0.000607092359937205,2.80919717887868
28.625,-0.927286267174007,-0.000440694846036826,2.99850392509264
28.6875,-0.469289990775864,-0.000225414213897546,3.11397727980722
28.75,0.000249452268431572,1.46858333495141e-05,3.15277449053746
28.8125,0.469773618482601,0.000253452542034411,3.11394076114726
28.875,0.927726024931077,0.000464803899729457,2.99843268534881
28.9375,1.36283591796303,0.000624901459995667,2.80909463920495
29,1.76439485235046,0.000714352096059486,2.55058872123347
29.0625,2.12251942883137,0.000720364746085566,2.22927996758997
29.125,2.42839388235497,0.000638638766007787,1.85307966593967
29.1875,2.67448668590994,0.000474604369311455,1.43125061881965
29.25,2.85473592715409,0.000243558305701918,0.974179140918228
29.3125,2.96469891917104,-3.06678382111241e-05,0.493119392228045
29.375,3.00166231481158,-0.000318561980916503,-8.36694770482982e-05
29.4375,2.964709898188,-0.000588913501891396,-0.493285904828991
29.5,2.85474621729457,-0.000813119997160259,-0.974343003451964
29.5625,2.67447528498229,-0.000968862564973938,-1.43140952825467
29.625,2.4283346921065,-0.00104239511986383,-1.85323062738417
29.6875,2.12238661947898,-0.00102916187871081,-2.22941922435834
29.75,1.76416836942537,-0.000932968148453459,-2.5507118516003
29.8125,1.36250612223701,-0.000764265360762373,-2.80919681710677
29.875,0.927296613826192,-0.000538179269725982,-2.9985090755478
29.9375,0.469262286804904,-0.000272757788017398,-3.11398699682757
30,-0.000313846387028256,1.23386701440569e-05,-3.15278716647388
30.0625,-0.469866896068513,0.000296725226388471,-3.11395438947713
30.125,-0.927835321160837,0.000559950840458456,-2.99844517622542
30.1875,-1.36294557751153,0.000782197872499801,-2.80910413811183
30.25,-1.76448918017482,0.000945281776487786,-2.55059388242179
30.3125,-2.12258544584822,0.00103410857153952,-2.229280142276
30.375,-2.4284236071463,0.00103856149185586,-1.85307497935273
30.4375,-2.67447854406308,0.0009555414559318,-1.43124192780096
30.5,-2.85469503842029,0.000790645963926914,-0.974167882105327
30.5625,-2.96463620543615,0.000558848578149092,-0.493107347114091
30.625,-3.00159257738573,0.000283647785800489,9.46545351200312e-05
30.6875,-2.9646491963272,-5.47727671344495e-06,0.493294199920212
30.75,-2.85470900848825,-0.000276943794314841,0.974347435142131
30.8125,-2.6744718366948,-0.000501461758320693,1.43140954327964
30.875,-2.42836923281253,-0.000655972705804074,1.85322635756551
30.9375,-2.12245656873657,-0.000726349907428255,2.22941144592238
31,-1.76426479367202,-0.000708517396779561,2.55070184824723
31.0625,-1.36261533969691,-0.000608103147302341,2.809186170446
31.125,-0.927402660258211,-0.000439035085455399,2.99849941677903
31.1875,-0.469349794381088,-0.000221557035204521,3.11397975838688
31.25,0.000256881240626878,1.9961384181227e-05,3.15278337121376
31.3125,0.469846958967497,0.000259219911154508,3.11395450815498
31.375,0.927852229084357,0.000470140753187764,2.99844907282815
31.4375,1.36299253477391,0.000629015312011351,2.80911110867506
31.5,1.76455402356295,0.000716672664519658,2.55060277867939
31.5625,2.12265284595098,0.000720603652865064,2.22928955888668
31.625,2.42847782277876,0.000636818858320296,1.85308347444932
31.6875,2.67450623235567,0.000471057912095169,1.43124824245646
31.75,2.85468762001771,0.000238889569425448,0.974171125499711
31.8125,2.96459137031978,-3.56599890175614e-05,0.493107120375835
31.875,3.00151467401018,-0.000322999767286637,-9.82127375297459e-05
31.9375,2.96454844533003,-0.000591982007791317,-0.493300450589059
32,2.85459968691312,-0.000814212811514571,-0.974355350822672
32.0625,2.67436975485465,-0.00096770388602482,-1.43141787538473
32.125,2.42828894508804,-0.00103911242704611,-1.85323383211404
32.1875,2.12240880331008,-0.00102429052091021,-2.22941695717361
32.25,1.76425454825305,-0.000927380258535299,-2.55070462097392
32.3125,1.36264097713761,-0.000759028714245504,-2.80918586723867
32.375,0.927456167560179,-0.000534365474005444,-2.99849617583054
32.4375,0.469418168258305,-0.000271231421828459,-3.11397415817759
32.5,-0.000189356249405855,1.11102408731162e-05,-3.15277632967962
32.5625,-0.469795933842193,0.000292800121036065,-3.11394713359004
32.625,-0.927830502909754,0.000553944554861415,-2.99844249053323
32.6875,-1.36300775343521,0.000775199772780928,-2.80910629028994
32.75,-1.76460728179837,0.00093866006433279,-2.55060039990928
32.8125,-2.12273845355978,0.00102923448841661,-2.22928990626398
32.875,-2.42858428876421,0.00103650851914485,-1.85308641374214
32.9375,-2.67461829979877,0.000956830426306784,-1.43125325164045
33,-2.85478899029065,0.000795104580668548,-0.974177385365159
33.0625,-2.96466762517847,0.000565630067932214,-0.493113647337675
33.125,-3.00155586430415,0.00029141215850862,9.24129755096592e-05
33.1875,-2.96455087450925,1.737584783678e-06,0.49329623238479
33.25,-2.8545665655536,-0.000271661255941702,0.974353303658656
33.3125,-2.67431061077195,-0.000499050730144843,1.43141824277311
33.375,-2.4282179021689,-0.000656754141934418,1.85323648529667
33.4375,-2.12234204736512,-0.000730004434588439,2.22942142593852
33.5,-1.76420744178056,-0.000714204613936341,2.55071017518651
33.5625,-1.3626253416711,-0.00061467650035963,2.80919163518982
33.625,-0.927478214440318,-0.000445290596918694,2.99850128034743
33.6875,-0.469477436182371,-0.000226457948572092,3.1139778493405
33.75,9.98811796736865e-05,1.71243173565829e-05,3.15277809416492
33.8125,0.469688548990393,0.000258749767858472,3.1139467648335
33.875,0.927720603373612,0.000471933992498791,2.99844011034218
33.9375,1.36291111771422,0.000632622550341928,2.80910232017794
34,1.76453730368893,0.000721398532162043,2.55059548808294
34.0625,2.12270380019327,0.000725625336661224,2.22928482269657
34.125,2.42858738874766,0.000641308122272345,1.8530819301851
34.1875,2.67465492212455,0.000474296146290066,1.43125002515649
34.25,2.85484898803941,0.000240367225209336,0.974175862835005
34.3125,2.96473671842225,-3.6169195393549e-05,0.493114004677392
34.375,3.00161815648917,-0.000325400594341825,-9.02888233310639e-05
34.4375,2.96459166609834,-0.000595864222985177,-0.493292717321106
34.5,2.85457497111995,-0.000818905623449106,-0.974348971487777
34.5625,2.67428151325221,-0.000972373609666875,-1.43141377245385
34.625,2.42815288871344,-0.00104289168480632,-1.85323255523526
34.6875,2.12224914838348,-0.00102642228355958,-2.22941861166263
34.75,1.7640997085531,-0.000927356616839823,-2.55070886572936
34.8125,1.36251850997763,-0.000756701949666289,-2.80919198022723
34.875,0.927387872108516,-0.000530008648621991,-2.99850317512205
34.9375,0.469416207816115,-0.000265529264312899,-3.11398095848784
35,-0.000124618418775946,1.71504103015759e-05,-3.15278190963742
35.0625,-0.469676000101718,0.000298013429448931,-3.11395068810384
35.125,-0.927676696255318,0.000557228081217072,-2.99844354569198
35.1875,-1.36284742518644,0.000775747903687374,-2.80910476460781
35.25,-1.76446894609243,0.000936165032082279,-2.55059660434628
35.3125,-2.12264671393748,0.00102399941185846,-2.22928448494592
35.375,-2.42855545955051,0.00102943228273638,-1.85308023620498
35.4375,-2.67465750180462,0.000949250666521058,-1.43124727441169
35.5,-2.85488923830804,0.000788522440186347,-0.974172504759895
35.5625,-2.96481107029517,0.000561377685120528,-0.493110565987557
35.625,-3.00171697030202,0.000290347152670837,9.3286134602355e-05
35.6875,-2.96470096297815,4.04685552315856e-06,0.493294834618429
35.75,-2.85467892039382,-0.000266495341029405,0.974349917007919
35.8125,-2.67436523305684,-0.000492115779495657,1.43141344062102
35.875,-2.42820506869946,-0.00064944667992349,1.8532310366449
35.9375,-2.12226403952067,-0.000723716021334617,2.22941617318788
36,-1.76407813735063,-0.000710035496839997,2.55070590470734
36.0625,-1.36246774302047,-0.000613239997283039,2.80918896044698
36.125,-0.927320353699321,-0.000446639850948469,2.99850055481335
36.1875,-0.469347386743698,-0.000230132885146616,3.11397912138577
36.25,0.000178999003872579,1.19582031950946e-05,3.15278110939454
36.3125,0.46970267976901,0.000253112825757,3.11395101400377
36.375,0.927667254844065,0.000466837126874193,2.99844491418206
36.4375,1.36279980180633,0.000628900042337524,2.80910693715233
36.5,1.7643878424511,0.000719590842097823,2.55059922812356
36.5625,2.12254279837555,0.000725920632371814,2.22928714957284
36.625,2.42844350064619,0.000643541107906511,1.85308253745034
36.6875,2.67455375454627,0.000477996582635871,1.4312488750704
36.75,2.85480854584648,0.000244847313794108,0.974173183578467
36.8125,2.96476420257629,-3.17016161777723e-05,0.493110247605221
36.875,3.00170868396845,-0.000321718433387296,-9.45241820083931e-05
36.9375,2.96472913925217,-0.00059360408094386,-0.493296778198532
37,2.85473494172919,-0.000818473163423067,-0.974352251824417
37.0625,2.67443553178936,-0.000973882738087977,-1.43141580265781
37.125,2.42827356516124,-0.00104614298937736,-1.85323306856838
37.1875,2.12231502446337,-0.00103092175301668,-2.22941757801229
37.25,1.76409907481105,-0.000932373901984456,-2.55070648871784
37.3125,1.36245148886397,-0.000761366503902745,-2.80918865925726
37.375,0.927266396558348,-0.00053343897272075,-2.99849943917526
37.4375,0.469261899050154,-0.000266983624131328,-3.11397738251941
37.5,-0.000284296603384335,1.81227642578828e-05,-3.1527790266841
37.5625,-0.469812626767195,0.000301449882462654,-3.11394891044737
37.625,-0.927765949682159,0.000562691761859717,-2.9984431066384
37.6875,-1.36287341072849,0.000782355865781877,-2.80910568898126
37.75,-1.7644270253817,0.000942718210723505,-2.55059871122816
37.8125,-2.12254433160477,0.00102920355948458,-2.22928742123845
37.875,-2.42841081974166,0.00103217162052745,-1.85308353501402
37.9375,-2.67449632944028,0.000948852615147057,-1.43125042870645
38,-2.8547402011608,0.000784942367816771,-0.974175044777819
38.0625,-2.96470067670318,0.000555244790047274,-0.493112128646468
38.125,-3.00166485100958,0.000282846897202651,9.29059838948865e-05
38.1875,-2.96471637734275,-3.33756802725366e-06,0.493295658224449
38.25,-2.8547591091247,-0.00027231689222118,0.974351784151651
38.3125,-2.6744959106442,-0.000495284514853958,1.4314160392049
38.375,-2.42836296747612,-0.000649455570980294,1.85323395416366
38.4375,-2.12242105189542,-0.000720720643731939,2.22941896169263
38.5,-1.7642063183311,-0.000704779922054862,2.55070814911028
38.5625,-1.3625442823499,-0.000606861198377164,2.80919033982388
38.625,-0.927331632856127,-0.000440408096742664,2.99850088773212
38.6875,-0.469291399429934,-0.000225191806901769,3.11397838895069
38.75,0.00029229271794513,1.47983266294439e-05,3.15277945322635
38.8125,0.469853127779986,0.000253495077892057,3.1139487102121
38.875,0.927828099523986,0.000464880667355062,2.99844232794775
38.9375,1.36294244039688,0.000625135019795315,2.80910446530238
39,1.76448691463985,0.000714828932454491,2.55059723865883
39.0625,2.12258069642884,0.000721091376898061,2.22928592729802
39.125,2.42841350027542,0.000639524638724734,1.85308224367285
39.1875,2.67446120994057,0.000475479330847586,1.43124952699393
39.25,2.85466993647102,0.000244220832415275,0.974174655904145
39.3125,2.96460420128972,-3.03864936742454e-05,0.493112295454246
39.375,3.00155576788485,-0.000318739128000908,-9.22250773783828e-05
39.4375,2.96461052398126,-0.000589502685401597,-0.493294580551919
39.5,2.85467174003374,-0.000813957881730545,-0.974350483046205
39.5625,2.6744389978348,-0.000969714840697543,-1.43141471643112
39.625,2.42834309246105,-0.00104302750814405,-1.85323280885732
39.6875,2.12243825368707,-0.00102941303173826,-2.22941816054418
39.75,1.76425409232343,-0.000932800102337226,-2.55070780222332
39.8125,1.3626107249741,-0.000763774725222247,-2.8091904857295
39.875,0.927401530125386,-0.000537565534262892,-2.99850148958291
39.9375,0.46934889607036,-0.000272259055226055,-3.11397934219052
40,-0.000260906700728476,1.25221860836127e-05,-3.15278060328814
40.0625,-0.469856997914663,0.000296496209359426,-3.11394987730778
40.125,-0.927870179087616,0.000559348368922358,-2.99844333500384
40.1875,-1.36301894395388,0.000781388801444502,-2.8091051647125
40.25,-1.76458795703917,0.000944511943796141,-2.55059753381517
40.3125,-2.12269201473621,0.00103362810938302,-2.22928578577008
40.375,-2.42851896380558,0.00103854710284948,-1.8530817002637
40.4375,-2.67454567951901,0.000956040306447793,-1.43124867649528
40.5,-2.85472196523209,0.000791559541629846,-0.974173636949611
40.5625,-2.9646180905412,0.000559961937037974,-0.493111268185002
40.625,-3.00153260190545,0.000284694387775244,9.31039631584252e-05
40.6875,-2.96455798926125,-4.73678165963587e-06,0.493295181501781
40.75,-2.85460275508163,-0.000276654598015445,0.974350722551374
40.8125,-2.67436939819114,-0.000501640541508516,1.43141456840164
40.875,-2.4282887902669,-0.000656514944397665,1.85323230697316
40.9375,-2.12241238820754,-0.000727073754185124,2.2294173914873
41,-1.76426468839361,-0.000709227480830845,2.55070689106636
41.0625,-1.36265928066296,-0.000608652293101315,2.80918957589485
41.125,-0.927482782197135,-0.000439364149240996,2.99850072053261
41.1875,-0.469451795799635,-0.000221701469944261,3.11397882827136
41.25,0.000151193222616373,1.98981970967714e-05,3.15278041690228
41.3125,0.469756431804815,0.000259115844499168,3.11395003886262
41.375,0.927793011806373,0.000469909082662406,2.99844381102258
41.4375,1.36297520518838,0.000628645056763728,2.80910587422296
41.5,1.7645817066412,0.000716240916627801,2.55059836187071
41.5625,2.12272065811185,0.000720254769550252,2.22928660188478
41.625,2.4285737409802,0.000636716416180327,1.85308237883009
41.6875,2.67461323344368,0.000471324950764003,1.43124911600178
41.75,2.85478670974224,0.000239557605114465,0.974173775062326
41.8125,2.96466496305198,-3.46744889509728e-05,0.493111090453002
41.875,3.00154972171926,-0.000321881190785263,-9.35629838781926e-05
41.9375,2.96453875897217,-0.000590966022242888,-0.493295844712601
42,2.85454703713734,-0.000813516324740851,-0.974351483186608
42.0625,2.67428355624406,-0.000967457500672167,-1.43141530717298
42.125,2.42818458030907,-0.00103931855089447,-1.85323291072489
42.1875,2.12230488560647,-0.0010248221039004,-2.22941777043932
42.25,1.7641696095768,-0.000928021317429422,-2.55070699202621
42.3125,1.36259017125558,-0.000759543553302387,-2.80918938951449
42.375,0.927448574617082,-0.000534574072406352,-2.99850028166465
42.4375,0.469455180110155,-0.000271066875475435,-3.11397820956309
42.5,-0.000114282950438517,1.15801585205261e-05,-3.15277971679131
42.5625,-0.469696113096939,0.00029339384470176,-3.11394936595095
42.625,-0.927723650602193,0.000554423724029225,-2.99844326729438
42.6875,-1.36291283567686,0.00077534515035139,-2.80910553967637
42.75,-1.76454114091704,0.000938343226162226,-2.55059828285448
42.8125,-2.12271281184204,0.00102846280682951,-2.22928678481716
42.875,-2.4286036629622,0.0010354285393754,-1.85308279012974
42.9375,-2.67467919750845,0.000955687540188981,-1.43124968810403
43,-2.85488053132423,0.000794171201616567,-0.974174417475633
43.0625,-2.96477347750555,0.000565125327757807,-0.493111704067972
43.125,-3.00165715014493,0.000291439186311653,9.30705837834944e-05
43.1875,-2.96462952942552,2.25824409406505e-06,0.493295545297939
43.25,-2.8546085527059,-0.000270807378290583,0.974351417400773
43.3125,-2.67430841829441,-0.000498091248154356,1.43141547906309
43.375,-2.42817187926468,-0.000655912301271494,1.85323328802726
43.4375,-2.12226034148972,-0.000729434864842888,2.22941829045079
43.5,-1.76410454830074,-0.000713956329460492,2.55070757202455
43.5625,-1.36251952429848,-0.000614692942837596,2.80918993999523
43.625,-0.927388255584347,-0.000445443905375879,2.99850072025699
43.6875,-0.469419295440696,-0.000226603819794624,3.1139784734354
43.75,0.000115905990187767,1.70905882633221e-05,3.15277977165914
43.8125,0.469659653367225,0.000258854846942767,3.11394921039658
43.875,0.927651974568987,0.000472118065147324,2.99844293188795
43.9375,1.3628150115146,0.000632763301935554,2.80910508121882
44,1.76443086378359,0.000721359367403637,2.55059777480894
44.0625,2.1226060080144,0.000725311494422301,2.22928630553914
44.125,2.42851568636264,0.000640711165355216,1.8530824107798
44.1875,2.67462210899888,0.000473510396663872,1.43124946210054
44.25,2.85486094384397,0.000239570516942449,0.974174373033344
44.3125,2.96479135713809,-3.6766105272559e-05,0.49311184084098
44.375,3.00170579796,-0.00032562039038885,-9.27803958038487e-05
44.4375,2.96469675889495,-0.000595623109218081,-0.493295151715654
44.5,2.85467886004171,-0.00081824593309565,-0.97435098424173
44.5625,2.6743657588591,-0.000971456262188888,-1.4314150737136
44.625,2.4282025480834,-0.00104194936141544,-1.85323297102384
44.6875,2.12225543330557,-0.00102568802409203,-2.22941810645952
44.75,1.76406154830881,-0.000926991378557059,-2.55070754355375
44.8125,1.36244274091144,-0.000756745110447124,-2.80919006472872
44.875,0.92728802056715,-0.000530367533342955,-2.99850097231774
44.9375,0.469310083229236,-0.000266010778918497,-3.11397880827424
45,-0.000218092014343243,1.67763420622301e-05,-3.15278013369976
45.0625,-0.469740150482361,0.000297938556848728,-3.11394954215031
45.125,-0.927700068664077,0.000557541963547156,-2.99844318304715
45.1875,-1.36282581981534,0.000776405381676152,-2.80910521628094
45.25,-1.76440616502648,0.000936995711872194,-2.55059777806319
45.3125,-2.12255388465425,0.00102475720474574,-2.22928618271434
45.375,-2.42844905520708,0.00102987038267839,-1.8530821872173
45.4375,-2.67455641038286,0.000949198582443377,-1.43124917788714
45.5,-2.85481140199011,0.000787940194252767,-0.974174076001051
45.5625,-2.96477029303192,0.000560369311928338,-0.493111578648187
45.625,-3.00172046171366,0.00028912922216194,9.29677964796038e-05
45.6875,-2.96474805573208,2.8830121494277e-06,0.49329523803917
45.75,-2.85476118933675,-0.000267371640418436,0.974350960391199
45.8125,-2.67446799484037,-0.000492565058481453,1.43141494842653
45.875,-2.4283099948973,-0.000649454189984581,1.85323276868719
45.9375,-2.12235241807346,-0.00072338178927019,2.22941786258306
46,-1.7641342018785,-0.000709529696849119,2.55070729871937
46.0625,-1.36248147760807,-0.000612740454102973,2.80918985802627
46.125,-0.927289274247192,-0.0004462730818179,2.99850083529484
46.1875,-0.469276982182332,-0.000229937550434699,3.113978760299
46.25,0.000276243893695031,1.20348476233099e-05,3.15278017938522
46.3125,0.469809505918432,0.000253185922989622,3.11394967115369
46.375,0.927764699573338,0.000467033483337331,2.99844337219435
46.4375,1.36287057239738,0.000629303253643781,2.80910543361759
46.5,1.76441939254741,0.000720201187683062,2.55059798815042
46.5625,2.1225295599688,0.000726644084415541,2.22928635231376
46.625,2.42838787455127,0.000644212510595968,1.85308229046406
46.6875,2.67446568307504,0.000478430674176447,1.43124920015094
46.75,2.85470374363136,0.00024490136507337,0.974174015859348
46.8125,2.96466136029663,-3.20747206814017e-05,0.493111447707306
46.875,3.00162614257096,-0.000322445773103434,-9.31471409346685e-05
46.9375,2.96468162653937,-0.000594507170283572,-0.493295436484229
47,2.85473095209468,-0.000819318535189619,-0.974351146572578
47.0625,2.67447581536404,-0.000974453039085587,-1.43141509391421
47.125,2.42835099510446,-0.00104630508225753,-1.85323285231707
47.1875,2.12241586579298,-0.00103066861621236,-2.22941787345349
47.25,1.76420542874131,-0.000931825850807751,-2.55070723743742
47.3125,1.36254447752769,-0.000760731180506402,-2.80918973609753
47.375,0.92732952142086,-0.00053294338151666,-2.9985006728652
47.4375,0.469283975611851,-0.000266800341806151,-3.11397858270539
47.5,-0.000307149695709246,1.79317441880519e-05,-3.15278001312687
47.5625,-0.469876297820282,0.000300954159718568,-3.11394953993346
47.625,-0.927859065830611,0.000562071820827582,-2.99844329361145
47.6875,-1.36297936134816,0.000781846729466915,-2.80910541694564
47.75,-1.76452691716581,0.000942534481167039,-2.55059803344136
47.8125,-2.12262034973075,0.00102946906126657,-2.22928645086063
47.875,-2.42844939726319,0.00103287620414519,-1.85308242646786
47.9375,-2.67449056104047,0.000949850726651907,-1.43124935328191
48,-2.85469107172315,0.000785994662940543,-0.974174164309694
48.0625,-2.96461688597242,0.000556089618997516,-0.493111571287177
48.125,-3.00156126544498,0.000283278213000156,9.30642878232968e-05
48.1875,-2.9646113846352,-3.41136534777291e-06,0.493295403894493
48.25,-2.85467134620782,-0.000272851668597772,0.974351166449219
48.3125,-2.67444094755424,-0.000496121952022987,1.43141516118022
48.375,-2.42835053723078,-0.000650378420176399,1.85323295568454
48.4375,-2.12245331928837,-0.000721521998705727,2.22941799731738
48.5,-1.7642774955381,-0.000705323441280875,2.55070736428193
48.5625,-1.36264165950012,-0.000607113602243267,2.80918984903474
48.625,-0.927437839950047,-0.000440435409051803,2.99850075792271
48.6875,-0.469387496993506,-0.000225122964426654,3.11397863053516
48.75,0.000223444146519081,1.48266833729578e-05,3.15278001992359
48.8125,0.46982381869611,0.000253393507347261,3.11394950749562
48.875,0.927843585298936,0.000464643153434228,2.99844322862299
48.9375,1.36300000670009,0.000624844443150203,2.80910532967055
49,1.76457636064566,0.000714629630049287,2.55059793608964
49.0625,2.12268614987194,0.000721137377925236,2.22928635589219
49.125,2.42851624151569,0.000639920565060573,1.85308234506835
49.1875,2.67454300265197,0.000476234227540636,1.43124929417346
49.25,2.85471627234879,0.000245231874171286,0.974174132984546
49.3125,2.96460688138587,-2.93127975870356e-05,0.493111569681366
49.375,3.00151436118268,-0.000317833164365247,-9.30377196282084e-05
49.4375,2.96453244363742,-0.000588961956582044,-0.493295353767908
49.5,2.85457092377652,-0.000813884274383446,-0.974351099779051
49.5625,2.67433342747858,-0.000970080696122371,-1.43141508652141
49.625,2.42825159410664,-0.00104368305008756,-1.85323288215566
49.6875,2.1223771481218,-0.00103013359636047,-2.2294179335791
49.75,1.7642342916497,-0.000933357772252954,-2.55070731755893
49.8125,1.36263579191716,-0.000764010643110079,-2.80918982428624
49.875,0.927467045043821,-0.000537439284313581,-2.99850075726909
49.9375,0.469443243989602,-0.000271859519310702,-3.11397865303332
50,-0.000154469270973299,1.30074583488509e-05,-3.15278006173843
50.0625,-0.46975736414487,0.000296843142743365,-3.11394956245771
50.125,-0.927795030833867,0.000559370563834819,-2.99844328909551
50.1875,-1.36298160636207,0.00078100071943616,-2.80910538759933
50.25,-1.76459502816487,0.00094376109686662,-2.55059798408062
50.3125,-2.1227421918187,0.00103268540005211,-2.2292863881653
50.375,-2.42860327506849,0.00103765737090998,-1.8530823581616
50.4375,-2.6746490803932,0.000955448141251893,-1.43124928731609
50.5,-2.85482601513485,0.000791434124853076,-0.974174108105492
50.5625,-2.96470423399894,0.0005603455457078,-0.493111531072672
50.625,-3.00158547015977,0.00028549133827373,9.30840318796866e-05
50.6875,-2.9645681347765,-3.72786057448735e-06,0.493295400859527
50.75,-2.85456833228569,-0.000275676976771705,0.974351140770432
50.8125,-2.67429649137001,-0.0005009059916936,1.43141511552242
50.875,-2.42819033037277,-0.000656144788898406,1.85323289510211
50.9375,-2.12230585151384,-0.000727072405501929,2.22941792885611
51,-1.76416898669329,-0.000709494881933118,2.55070729631135
51.0625,-1.36259139647042,-0.00060902866566729,2.80918979033922
51.125,-0.927454747631504,-0.000439690419798975,2.99850071662316
51.1875,-0.469468552519182,-0.000221874697695527,3.11397861296343
51.25,9.26725127283276e-05,1.98923353319358e-05,3.15278002960658
51.3125,0.469666604193925,0.000259203324458735,3.11394954442135
51.375,0.927687903412498,0.000469959615624195,2.99844328894247
51.4375,1.36287355983097,0.000628524881505577,2.80910540594137
51.5,1.76450165114057,0.000715868489737726,2.55059801808757
51.5625,2.12267647739012,0.000719640238772924,2.22928643192667
51.625,2.42857333666801,0.000635970456342149,1.85308240364064
51.6875,2.67465671818085,0.000470632164974635,1.43124932574386
51.75,2.85486638735791,0.000239121508024996,0.974174131570294
51.8125,2.96476669821772,-3.46976860371175e-05,0.4931115340126
51.875,3.00165545537016,-0.000321437840564943,-9.31037114260125e-05
51.9375,2.9646297218303,-0.000590129673539736,-0.493295441260836
52,2.85460708940108,-0.000812471622793121,-0.974351196173264
52.0625,2.67430205907929,-0.000966446999026569,-1.43141517723138
52.125,2.4281582881905,-0.00103856922982444,-1.85323295282782
52.1875,2.12223852293073,-0.00102447595058975,-2.22941797239617
52.25,1.76407502920521,-0.00092809320737023,-2.55070731725801
52.3125,1.36248424499658,-0.000759920270507789,-2.80918978353805
52.375,0.927350191193063,-0.000535054338492783,-2.99850068115442
52.4375,0.469381884776575,-0.000271428917798942,-3.11397855249209
52.5,-0.000149409397561961,1.15053203174651e-05,-3.15277995203136
52.5625,-0.469686780898327,0.000293666446564603,-3.11394946084991
52.625,-0.927671479512728,0.000554974030996821,-2.99844321211493
52.6875,-1.36282706649362,0.000775993738303267,-2.80910534830937
52.75,-1.76443699137508,0.000938856945741424,-2.55059798982411
52.8125,-2.12260876926046,0.00102862939712567,-2.22928643917501
52.875,-2.42851819515916,0.00103512638897331,-1.85308244730163
52.9375,-2.67462746707091,0.000954927830200401,-1.43124940103676
53,-2.85487169784497,0.000793098121205137,-0.974174228493765
53.0625,-2.96480906789301,0.000563973927773349,-0.493111638686023
53.125,-3.00173078710081,0.00029046490791918,9.30069937401523e-05
53.1875,-2.96472806646447,1.66172381268646e-06,0.493295367573283
53.25,-2.85471441371116,-0.000270935594218966,0.974351157498618
53.3125,-2.67440272517936,-0.000497789050462119,1.43141518041987
53.375,-2.42823781105272,-0.000655323441101358,1.85323299834892
53.4375,-2.12228612701175,-0.000728755103201256,2.22941805412403
53.5,-1.76408556003464,-0.000713367584182362,2.55070742335226
53.5625,-1.3624591009569,-0.000614307438182388,2.80918989828137
53.625,-0.927297107340803,-0.00044527578323876,2.9985007874348
53.6875,-0.469313597859662,-0.000226575847527106,3.11397863450357
53.75,0.000217390052014912,1.71091982474361e-05,3.15277999773865
53.8125,0.469738911832332,0.000258993244895929,3.11394946381713
53.875,0.927694950417438,0.000472450082470756,2.99844317242006
53.9375,1.36281410335264,0.000633273439115765,2.80910527242659
54,1.76438627793917,0.000721940344740574,2.55059788952547
54.0625,2.12252572162713,0.000725795206574963,2.22928632964906
54.125,2.42841402797294,0.000640923887472254,1.8530823447963
54.1875,2.67451720908452,0.00047333451291302,1.4312493203943
54.25,2.8547715088646,0.000238991844778999,0.974174180944662
54.3125,2.96473334109979,-3.76426371697701e-05,0.493111630228137
54.375,3.0016895638203,-0.000326594106779989,-9.29764005129785e-05
54.4375,2.96472523498041,-0.000596454334857013,-0.493295303884524
54.5,2.85474701953943,-0.000818728544882373,-0.974351071560262
54.5625,2.67446151490961,-0.000971482066655295,-1.43141508619211
54.625,2.42830890501185,-0.00104154220657088,-1.85323291065256
54.6875,2.12235351098223,-0.0010249955449901,-2.22941798625817
54.75,1.76413394134025,-0.000926236844774605,-2.55070738496813
54.8125,1.36247661494929,-0.00075615546144055,-2.80918989387194
54.875,0.927277394983512,-0.000530101342414607,-2.99850081570645
54.9375,0.469256894302512,-0.000266109253378911,-3.11397868875123
55,-0.000304336273611903,1.64002263424659e-05,-3.15278006716374
55.0625,-0.469844062268141,0.000297469919999043,-3.11394953554984
55.125,-0.927803118032561,0.000557202590024684,-2.99844323386959
55.1875,-1.36290963112429,0.000776380144559398,-2.80910531352067
55.25,-1.7644557858686,0.00093736986460192,-2.55059790442394
55.3125,-2.12256044585192,0.00102548464949877,-2.2292863176257
55.375,-2.42841134865908,0.00103078378207613,-1.85308231014749
55.4375,-2.67448110396113,0.000950058909204174,-1.43124927142408
55.5,-2.85471185311682,0.000788510081203901,-0.974174128246825
55.5625,-2.9646641719255,0.000560486140406234,-0.493111584610878
55.625,-3.00162660718569,0.000288753773380615,9.30059512088688e-05
55.6875,-2.96468312307727,2.10806392515273e-06,0.493295311828342
55.75,-2.85473668690197,-0.000268354388152773,0.974351056733866
55.8125,-2.6744882366626,-0.000493527249214346,1.43141505191184
55.875,-2.42837133369213,-0.000650200646883812,1.85323286400445
55.9375,-2.12244389490933,-0.000723804953591657,2.22941793673588
56,-1.76423949671162,-0.000709632047596455,2.55070734271289
56.0625,-1.36258181339551,-0.000612619679736585,2.80918986782532
56.125,-0.927366757790856,-0.000446077126447863,2.99850081198044
56.1875,-0.469317787313319,-0.000229805944591533,3.11397870947821
56.25,0.000279416982574532,1.20233858511706e-05,3.15278011001452
56.3125,0.469856132528168,0.00025304240758894,3.11394959400591
56.375,0.927846524316876,0.000466854799855429,2.99844329822482
56.4375,1.36297307821056,0.000629236778881491,2.8091053724705
56.5,1.7645243835734,0.000720389331682489,2.55059794699672
56.5625,2.12261839888602,0.000727167058549284,2.22928633514071
56.625,2.42844479846097,0.000645048962887902,1.85308229785747
56.6875,2.67448060800495,0.000479450848943155,1.43124922953719
56.75,2.85467405860914,0.000245897259301518,0.974174062116681
56.8125,2.9645923916872,-3.13301042717505e-05,0.493111504020272
56.875,3.00153020600371,-0.000322128443989619,-9.30883211897049e-05
56.9375,2.96457583515394,-0.000594684582256777,-0.493295382501088
57,2.85463417122088,-0.000819924563717495,-0.974351103748142
57.0625,2.67440530567582,-0.000975305328186158,-1.43141506692638
57.125,2.42831934167545,-0.00104716022237547,-1.85323284380118
57.1875,2.122428739482,-0.00103129733942197,-2.22941788383927
57.25,1.76426057807145,-0.000932083344768422,-2.55070726500453
57.3125,1.36263213015445,-0.000760599449060823,-2.80918977722593
57.375,0.927434123460179,-0.000532532366700948,-2.9985007224495
57.4375,0.469386959164924,-0.000266308312552083,-3.11397863469983
57.5,-0.000224063240240729,1.82851567385542e-05,-3.15278006118342
57.5625,-0.469827846273252,0.000301000839538103,-3.11394957808831
57.625,-0.927853824734106,0.000561751182131623,-2.99844331696512
57.6875,-1.36301821873103,0.000781227431130486,-2.80910542227108
57.75,-1.76460291577949,0.000941794804439476,-2.55059801964773
57.8125,-2.12271992486965,0.00102884162756247,-2.22928641924176
57.875,-2.42855479007665,0.00103257418880528,-1.85308238067803
57.9375,-2.67458297810838,0.000949999272601018,-1.43124929900746
58,-2.8547540288082,0.000786590113764668,-0.974174108643344
58.0625,-2.96463914097306,0.00055700016973019,-0.493111521856372
58.125,-3.00153881858238,0.00028428546393547,9.31003425441723e-05
58.1875,-2.96454818987438,-2.54447832299335e-06,0.49329542095831
58.25,-2.85457860730562,-0.000272309716827492,0.974351161336413
58.3125,-2.67433512408081,-0.000495986010334912,1.43141513375197
58.375,-2.42825041553332,-0.000650610797457263,1.8532329090593
58.4375,-2.12237666974853,-0.000721989653326519,2.22941793760428
58.5,-1.76423791099929,-0.000705850144991981,2.55070729983755
58.5625,-1.3626461373573,-0.000607542069160352,2.80918978932182
58.625,-0.927485537929693,-0.000440678422531274,2.99850071212109
58.6875,-0.46946988374603,-0.000225187223941465,3.11397860610931
58.75,0.000121070659446965,1.48507220800734e-05,3.15278002137417
58.8125,0.469719715277622,0.000253371384761362,3.11394953550953
58.875,0.92775631544127,0.000464451975985761,2.99844327978444
58.9375,1.36294513810974,0.000624425500259136,2.80910539681373
59,1.76456369578437,0.00071402000093914,2.55059800927067
59.0625,2.12271798216246,0.000720468785174486,2.22928642385521
59.125,2.42858694747759,0.000639384049728247,1.85308239698827
59.1875,2.67464004261546,0.000476020621534099,1.43124932140557
59.25,2.85482242177553,0.00024546689632731,0.974174130532264
59.3125,2.96470329579945,-2.86169289424733e-05,0.493111537129578
59.375,3.00158392929513,-0.000316791988818529,-9.3095981555269e-05
59.4375,2.96456283192041,-0.000587791985554388,-0.493295429098486
59.5,2.85455677064423,-0.000812842051054502,-0.974351180551096
59.5625,2.67427729665617,-0.000969386757208755,-1.43141515991983
59.625,2.42816351767555,-0.00104345579926138,-1.85323293622817
59.6875,2.1222728407879,-0.00103035526203426,-2.22941795920882
59.75,1.76413235423614,-0.000933883779489112,-2.55070731002901
59.8125,1.3625544018387,-0.000764618953423905,-2.80918978416379
59.875,0.92742072261909,-0.000537903097778089,-2.99850069044069
59.9375,0.469440269764186,-0.000272019701600017,-3.11397856986193
60,-0.00011352696272835,1.31929646912561e-05,-3.15277997545855
60.0625,-0.469679749678247,0.000297287853078121,-3.11394948705719
60.125,-0.927694512127781,0.000559888982802997,-2.9984432370258
60.1875,-1.36287602540421,0.000781369479001502,-2.80910536769304
60.25,-1.76450312688763,0.000943792660723112,-2.55059800002914
60.3125,-2.12268027786922,0.00103229111759504,-2.22928643782238
60.375,-2.42858232056199,0.00103687948190361,-1.85308243380514
60.4375,-2.67467276982586,0.000954449870952424,-1.43124937684164
60.5,-2.85489008986975,0.000790450705789248,-0.974174196968047
60.5625,-2.96479725008658,0.000559612302880742,-0.493111604664214
60.625,-3.00169083473172,0.000285172870963563,9.30379601102871e-05
60.6875,-2.96466705864911,-3.58404724494195e-06,0.493295390134975
60.75,-2.85464317329319,-0.00027514799936207,0.97435116744816
60.8125,-2.67433389339559,-0.000500161539048324,1.43141517548137
60.875,-2.42818359945701,-0.000655387997232207,1.85323297866886
60.9375,-2.12225614629086,-0.000726474463933124,2.22941802236417
61,-1.76408511150448,-0.000709145094048125,2.55070738434468
61.0625,-1.36248823420666,-0.000608915406534852,2.80918985829089
61.125,-0.927350611362886,-0.000439717474446424,2.99850075313957
61.1875,-0.469381927229641,-0.000221905714806246,3.11397861186375
61.25,0.000146418413927202,1.99773206432902e-05,3.15277999094728
61.3125,0.46967795266366,0.000259458680462691,3.11394947452041
61.375,0.927654879681149,0.000470348844609029,2.99844319935175
61.4375,1.36280208337613,0.000628928137805495,2.80910531153393
61.5,1.76440448231956,0.00071612122332944,2.55059793457778
61.5625,2.12257094707872,0.000719591053990594,2.2292863732387
61.625,2.42847826274108,0.000635539346330522,1.85308237956863
61.6875,2.67458905739121,0.000469849062085628,1.43124934029967
61.75,2.8548382183385,0.000238130465968454,0.974174182300001
61.8125,2.96478307249543,-3.56726042510117e-05,0.49311161240035
61.875,3.00171349885116,-0.000322155996560733,-9.30108172662036e-05
61.9375,2.96471914666008,-0.000590406949182235,-0.493295349437514
62,2.85471202504479,-0.000812239024271293,-0.974351120801389
62.0625,2.67440387663778,-0.000965774431939201,-1.43141513090352
62.125,2.42823891520795,-0.00103764542156624,-1.85323294322705
62.1875,2.12228365874478,-0.00102355046671138,-2.22941800100494
62.25,1.76407668874293,-0.00092739955133047,-2.55070737911729
62.3125,1.36244217858817,-0.000759605254913959,-2.80918986809845
62.375,0.927271928081867,-0.000535136253178276,-2.9985007740743
62.4375,0.46928139288174,-0.000271797023783947,-3.11397863807626
62.5,-0.000254208830909513,1.10508439286054e-05,-3.15278001589415
62.5625,-0.46977720157232,0.000293347355639312,-3.11394949234826
62.625,-0.927731394184469,0.000554960823790178,-2.99844320613717
62.6875,-1.36284577573489,0.000776349125315183,-2.80910530611666
62.75,-1.76441112677646,0.000939513647967108,-2.55059791880429
62.8125,-2.12254289253924,0.00102940956634157,-2.22928635155496
62.875,-2.42842398651646,0.00103579693158501,-1.85308235804217
62.9375,-2.67452164706577,0.000955274095682872,-1.43124932527267
63,-2.85477305240721,0.000792991888813884,-0.974174178957651
63.0625,-2.96473510576679,0.000563413207465072,-0.493111623557261
63.125,-3.00169462452357,0.00028957269703377,9.29854528352037e-05
63.1875,-2.96473609351274,6.45118574481469e-07,0.493295313360658
63.25,-2.85476515763443,-0.000271851054632026,0.974351080144798
63.3125,-2.67448711296249,-0.000498427170618272,1.43141509331858
63.375,-2.42834078436282,-0.000655605045719964,1.85323291643768
63.4375,-2.12238932197843,-0.000728711226015231,2.22941799131656
63.5,-1.76417057485775,-0.000713115971975632,2.5507073901652
63.5625,-1.36251076984755,-0.000614002353865469,2.80918990006199
63.625,-0.927306198330611,-0.000445049291863464,2.99850082349066
63.6875,-0.469278454660899,-0.000226490626158945,3.11397869827731
63.75,0.00029055401663497,1.7080096986135e-05,3.15278007798989
63.8125,0.469837119349857,0.000258953466190251,3.11394954659968
63.875,0.927800769517117,0.000472538500535698,2.99844324350666
63.9375,1.36290874868788,0.000633608016007224,2.80910531975913
64,1.76445295285799,0.000722566218283515,2.55059790526779
64.0625,2.12255260643495,0.000726655176475615,2.22928631149177
64.125,2.4283963827589,0.000641862908035926,1.85308229629542
64.1875,2.67445821692531,0.000474139050793417,1.43124925029425
64.25,2.854681709288,0.000239453180332807,0.974174101611923
64.3125,2.96462875454728,-3.76610091699708e-05,0.493111555474663
64.375,3.00158884084319,-0.00032710756903367,-9.30337220210742e-05
64.4375,2.96464633752672,-0.000597344434747214,-0.493295334094904
64.5,2.85470402498797,-0.00081977276607694,-0.974351069795543
64.5625,2.67446211162664,-0.000972418013669592,-1.43141505319279
64.625,2.4283530250417,-0.00104214588667485,-1.85323285257102
64.6875,2.12243334299827,-0.00102514804978251,-2.22941791352674
64.75,1.7642353212794,-0.000925957509882702,-2.55070731043364
64.8125,1.36258154661563,-0.00075559109332358,-2.80918983052933
64.875,0.927367251969283,-0.000529475832350215,-2.99850077443104
64.9375,0.469315733543439,-0.000265650465610628,-3.11397867642629
65,-0.000286938670714492,1.65329413039989e-05,-3.15278008552698
65.0625,-0.469871157194891,0.000297235251131609,-3.11394958095311
65.125,-0.927869841126967,0.000556689019009468,-2.9984432979843
65.1875,-1.36300406845077,0.000775776674103373,-2.80910538485439
65.25,-1.76456109354689,0.000936904876703204,-2.55059797037354
65.3125,-2.12265784666567,0.00102535195387644,-2.22928636670094
65.375,-2.4284834726623,0.00103107933525133,-1.85308233397335
65.4375,-2.67451507881812,0.000950748782721561,-1.4312492661729
65.5,-2.85470159431582,0.000789440308697353,-0.9741740952551
65.5625,-2.96461146527436,0.000561431028624932,-0.493111530081008
65.625,-3.00154079087149,0.000289486108684627,9.30721021931147e-05
65.6875,-2.96457942582164,2.46740448544896e-06,0.493295377761676
65.75,-2.85463351797418,-0.000268417772153183,0.974351110801158
65.8125,-2.67440391009087,-0.00049394605164421,1.43141508471057
65.875,-2.42832080969238,-0.000650821814250078,1.85323287001437
65.9375,-2.12243611840663,-0.000724446064520197,2.22941791525106
66,-1.76427580645171,-0.00071014265688216,2.55070729791127
66.0625,-1.36265570452265,-0.000612927005573484,2.80918980797172
66.125,-0.927465039886607,-0.000446201753675904,2.9985007479131
66.1875,-0.469422931642338,-0.000229843779372218,3.11397865265419
66.25,0.000186158735030007,1.194549434707e-05,3.15278007046604
66.3125,0.469791392855151,0.000252821627701079,3.1139495785713
66.375,0.927821861094992,0.000466458915308753,2.99844330936616
66.4375,1.36299291875946,0.00062872615203134,2.80910540788204
66.5,1.76458523725287,0.000719905683617614,2.55059800006608
66.5625,2.12270947832506,0.000726891167375454,2.22928639617239
66.625,2.42854993897011,0.000645139906620164,1.85308235583393
66.6875,2.67458114375538,0.000479986483540484,1.43124927409925
66.75,2.85475214386533,0.000246836577958974,0.974174085408798
66.8125,2.96463417609968,-3.0148124357145e-05,0.493111502073029
66.875,3.00152829887467,-0.000320946433797685,-9.31149141958354e-05
66.9375,2.96453062011409,-0.000593759142456783,-0.493295428727649
67,2.85455373739151,-0.000819450397112354,-0.974351161111828
67.0625,2.67430400768447,-0.00097535605915202,-1.43141512499741
67.125,2.42821524496413,-0.00104766607060896,-1.85323289210535
67.1875,2.12234040570277,-0.00103206766907545,-2.22941791374034
67.25,1.76420376268805,-0.000932866895215616,-2.55070727124534
67.3125,1.36261697981151,-0.000761162478528772,-2.80918975885217
67.375,0.9274633715733,-0.000532729518666346,-2.99850068295371
67.4375,0.469455440469979,-0.000266124177188428,-3.11397858136394
67.5,-0.000128493092441612,1.87358608658847e-05,-3.15278000374283
67.5625,-0.469722149843198,0.000301513505543977,-3.1139495269618
67.625,-0.927756765072917,0.000562098915081096,-2.99844328137174
67.6875,-1.36294702154819,0.000781234991930601,-2.80910540857361
67.75,-1.76457020513871,0.000941396048914361,-2.55059803021936
67.8125,-2.12273147744675,0.00102810244471197,-2.22928645205723
67.875,-2.42860850750463,0.00103167344277228,-1.85308242969873
67.9375,-2.67466926033717,0.000949173623447276,-1.43124935528789
68,-2.85485748218837,0.000786060633790721,-0.974174161956916
68.0625,-2.96474131725074,0.000556904977458592,-0.49311156254621
68.125,-3.00162149746146,0.000284640468551111,9.30796212154084e-05
68.1875,-2.96459662098611,-1.84462972545275e-06,0.493295423917595
68.25,-2.8545841346124,-0.000271452460410193,0.974351187393578
68.3125,-2.6742967256758,-0.000495178246046554,1.43141517814363
68.375,-2.42817488489265,-0.000650014713618457,1.85323296370995
68.4375,-2.12227740633932,-0.000721678178586762,2.22941799259124
68.5,-1.76413253564808,-0.000705795466503394,2.55070734518769
68.5625,-1.36255335686431,-0.000607638905866858,2.80918981681483
68.625,-0.927421816876248,-0.000440792136040624,2.99850071677434
68.6875,-0.469446515590204,-0.000225209160673796,3.11397858707634
68.75,9.99722716215818e-05,1.49598725427747e-05,3.15277998209545
68.8125,0.469657947821261,0.000253564895687926,3.11394948308905
68.875,0.927664911487982,0.000464612780507994,2.99844322370568
68.9375,1.36284040228689,0.000624409408370528,2.80910534722709
69,1.7644643039085,0.00071371238769463,2.55059797516134
69.0625,2.12264165854804,0.00071983564664271,2.22928641142077
69.125,2.42854731151022,0.000638499139275963,1.85308240851925
69.1875,2.67464418565191,0.000475057277139129,1.4312493548679
69.25,2.85486964557223,0.000244654443503217,0.974174179928464
69.3125,2.96478523702495,-2.90601038048315e-05,0.493111593573609
69.375,3.00168604800384,-0.000316727651710674,-9.30426679537355e-05
69.4375,2.96466699907466,-0.000587210282711207,-0.493295388554096
69.5,2.85464449412793,-0.000811871297111908,-0.974351160136958
69.5625,2.67433301159195,-0.000968259688318672,-1.43141516338705
69.625,2.42817735548559,-0.00104244199722282,-1.85323296303248
69.6875,2.12224238433405,-0.00102968130264238,-2.22941800459671
69.75,1.76406306694801,-0.000933667005108302,-2.55070736588224
69.8125,1.36245865477868,-0.000764836008274542,-2.80918984045208
69.875,0.927315592883308,-0.000538402547816485,-2.9985007370227
69.9375,0.469344502091769,-0.000272573746426024,-3.11397859831087
70,-0.000182854812515347,1.28146106421445e-05,-3.15277998058377
70.0625,-0.469710264686279,0.00029724497444954,-3.11394946784716
70.125,-0.927680746707896,0.000560220948178472,-2.99844319684175
70.1875,-1.36282038970556,0.000781983350953486,-2.80910531367731
70.25,-1.76441547980196,0.00094449283400443,-2.55059794183314
70.3125,-2.12257617300452,0.00103284135087708,-2.22928638588149
70.375,-2.42848023910157,0.00103707791284808,-1.85308239746874
70.4375,-2.67459083245506,0.000954193048637053,-1.43124936269316
70.5,-2.85484283273332,0.000789765880736881,-0.974174207635981
70.5625,-2.96479303846687,0.000558647693262961,-0.493111638338149
70.625,-3.00173037474223,0.000284149929468378,9.2987220067231e-05
70.6875,-2.96474327185476,-4.43949275362584e-06,0.49329533134849
70.75,-2.85474245657386,-0.000275672267464253,0.974351111110257
70.8125,-2.67443853978167,-0.000500295660745564,1.43141513168864
70.875,-2.42827494902251,-0.000655183859577801,1.85323295531075
70.9375,-2.12231790630162,-0.000726064900117732,2.22941802370335
71,-1.7641062550007,-0.000708690244922703,2.55070741024182
71.0625,-1.3624649613538,-0.000608544828015572,2.8091899042141
71.125,-0.927287024792085,-0.000439487757777449,2.99850081096091
71.1875,-0.469289301452324,-0.000221787202391467,3.11397867130012
71.25,0.000251643339268147,2.00813584754979e-05,3.15278004139131
71.3125,0.469777096179827,0.000259667845030224,3.11394950693416
71.375,0.927730344143287,0.000470751936150939,2.9984432078849
71.4375,1.36284048467818,0.00062953872150116,2.80910529457707
71.5,1.76439903088089,0.000716858491790045,2.55059789506178
71.5625,2.12252265563032,0.000720294235507518,2.22928631812531
71.625,2.428395765988,0.000636013041665051,1.85308231862169
71.6875,2.6744870755501,0.000469926167599445,1.43124928435402
71.75,2.85473493785685,0.000237732304963517,0.974174141335147
71.8125,2.96469691000134,-3.64999180928771e-05,0.493111593760914
71.875,3.00165982421299,-0.00032324329949087,-9.30037372375292e-05
71.9375,2.96470754835209,-0.00059150404602522,-0.493295317811107
72,2.8547446044823,-0.0008130853630358,-0.974351070174315
72.0625,2.67447487494834,-0.000966176249839107,-1.43141507022059
72.125,2.42833573868561,-0.00103753399006166,-1.85323288325039
72.1875,2.12238912027083,-0.00102300187460617,-2.22941795240358
72.25,1.76417206610585,-0.00092660935526423,-2.55070735056761
72.3125,1.36251054540857,-0.00075882644466123,-2.80918986473395
72.375,0.927301164738772,-0.00053460074130375,-2.99850079656235
72.4375,0.46926634195325,-0.000271645435449398,-3.11397868248813
72.5,-0.000310825803518107,1.08097685874851e-05,-3.15278007439334
72.5625,-0.469865268844469,0.000292836095468443,-3.1139495545761
72.625,-0.927835201724996,0.000554392074832044,-2.99844326104986
72.6875,-1.36294681411556,0.000775957325581609,-2.80910534394719
72.75,-1.76449137995075,0.00093948005907403,-2.55059793280041
72.8125,-2.12258804286585,0.00102980409073415,-2.22928633918387
72.875,-2.4284259619165,0.00103655502973142,-1.85308232144752
72.9375,-2.67448005711869,0.000956216298772862,-1.4312492709018
73,-2.85469525776542,0.000793879544343386,-0.974174116424531
73.0625,-2.96463490841045,0.00056402192478282,-0.49311156394046
73.125,-3.00158981183101,0.000289759086043766,9.30315727807329e-05
73.1875,-2.96464527317026,3.85211900909895e-07,0.493295337780791
73.25,-2.85470444667556,-0.000272462959655937,0.974351078499322
73.3125,-2.67446727019355,-0.000499216687058551,1.43141506585984
73.375,-2.42836529646696,-0.000656378109214279,1.85323286799845
73.4375,-2.12245378377745,-0.000729315442068704,2.22941793045884
73.5,-1.76426347382187,-0.000713482584001748,2.55070732766539
73.5625,-1.36261553503329,-0.00061415619676955,2.80918984700072
73.625,-0.927404148995123,-0.000445085481802724,2.99850078928631
73.6875,-0.469352123854113,-0.000226527847196809,3.11397868901266
73.75,0.000254312144318357,1.69525475425123e-05,3.15278009532986
73.8125,0.469844791196149,0.000258716216340033,3.11394958749263
73.875,0.927851028474947,0.00047225598419026,2.99844330072272
73.9375,1.36299269150692,0.000633410259657586,2.80910538316995
74,1.76455568385772,0.000722603689277387,2.55059796364088
74.0625,2.12265588778629,0.000727041138681645,2.22928635448098
74.125,2.42848187939299,0.000642622811821411,1.85308231627506
74.1875,2.6745107587729,0.00047518541160895,1.43124924371191
74.25,2.85469199037872,0.000240596980491952,0.974174069620207
74.3125,2.96459498863299,-3.6663162372661e-05,0.493111503729714
74.375,3.00151707888097,-0.000326483735440898,-9.30960601313036e-05
74.4375,2.96454939053087,-0.000597237033048113,-0.493295395983571
74.5,2.85459918401935,-0.000820191264556819,-0.974351120266141
74.5625,2.67436807079905,-0.000973231628847368,-1.43141508329577
74.625,2.42828655523832,-0.00104312027031068,-1.85323285696457
74.6875,2.12240630825088,-0.00102601496065005,-2.22941789142665
74.75,1.7642525686228,-0.000926495123684236,-2.55070726575473
74.8125,1.36264004464039,-0.000755689172179459,-2.80918977119249
74.875,0.927456631028086,-0.000529165439525961,-2.99850071095831
74.9375,0.46942013121563,-0.000265089782293178,-3.11397862007335
75,-0.00018605533518307,1.71113068742989e-05,-3.15278004628514
75.0625,-0.469791694725356,0.000297598664576583,-3.11394956577608
75.125,-0.927825894357298,0.000556678151202701,-2.99844330955497
75.1875,-1.36300341338619,0.000775355654862862,-2.80910542111038
75.25,-1.76460380425222,0.000936173104459363,-2.55059802487525
75.3125,-2.12273628221096,0.00102451383969198,-2.22928642977579
75.375,-2.4285836365395,0.00103038122098324,-1.85308239443285
75.4375,-2.67461910911675,0.000950402911361203,-1.43124931329757
75.5,-2.85479094172295,0.000789560288127322,-0.974174120695291
75.5625,-2.96467019347581,0.000561999576831921,-0.49311152933684
75.625,-3.00155841204287,0.00029036484603874,9.30988841125746e-05
75.6875,-2.96455276657085,3.44401168853861e-06,0.493295425815913
75.75,-2.85456728364863,-0.000267562151434955,0.97435117159045
75.8125,-2.67430984706666,-0.000493372246182438,1.43141514744209
75.875,-2.42821561483514,-0.000650591730963391,1.85323292355617
75.9375,-2.12233846786833,-0.000724517157211243,2.22941795010826
76,-1.76420303263438,-0.000710396967717382,2.55070730791113
76.0625,-1.36262071252703,-0.000613222549620552,2.80918979135805
76.125,-0.927474012001295,-0.000446427342357515,2.99850070765546
76.1875,-0.469474228096271,-0.000229958315338345,3.1139785959174
76.25,0.000101707409596388,1.19021412870454e-05,3.15278000733461
76.3125,0.469688854033638,0.000252749167177799,3.11394952025641
76.375,0.92771951921376,0.000466241120004203,2.99844326621422
76.4375,1.36290902230688,0.00062828380504925,2.80910538753885
76.5,1.76453475223658,0.000719239331060988,2.55059800612233
76.5625,2.12270142573141,0.000726097687866254,2.22928642753002
76.625,2.42858578991346,0.000644394940855032,1.85308240690501
76.6875,2.67465455791355,0.00047949601235113,1.43124933580111
76.75,2.85485009782134,0.000246771927248829,0.974174146778262
76.8125,2.96473928086343,-2.97106713403987e-05,0.49311155221345
76.875,3.00162189417755,-0.000320060223575444,-9.30848986754329e-05
76.9375,2.96459609477799,-0.00059260218338503,-0.493295424153506
77,2.85457948483019,-0.000818279878557389,-0.974351182773216
77.0625,2.67428549058404,-0.000974435341788647,-1.4314151690275
77.125,2.42815580182934,-0.00104718720820333,-1.8532329506639
77.1875,2.12225065596338,-0.00103209476948636,-2.22941797640957
77.25,1.76409971650342,-0.000933318930631137,-2.55070732688303
77.3125,1.36251718915236,-0.000761840973425668,-2.80918979757356
77.375,0.927385629595992,-0.000533381857044418,-2.99850069788896
77.4375,0.469413616365491,-0.00026652225626531,-3.11397856987824
77.5,-0.000126920865712462,1.8725968464676e-05,-3.15277996790196
77.5625,-0.469677423353423,0.000301891752018988,-3.11394947316064
77.625,-0.927676803372733,0.000562732854463528,-2.99844321919293
77.6875,-1.36284601162516,0.000781901901881079,-2.80910534908029
77.75,-1.7644660779731,0.00094185275811245,-2.55059798398677
77.8125,-2.12264271805208,0.0010281615634026,-2.22928642729315
77.875,-2.42855086632955,0.00103126234310189,-1.85308243078674
77.9375,-2.67465295105573,0.000948357493368907,-1.43124938201166
78,-2.8548853644965,0.000785022279689991,-0.974174209542463
78.0625,-2.96480838811636,0.000555888329663888,-0.493111622513963
78.125,-3.00171578146363,0.000283876885091684,9.30179463642933e-05
78.1875,-2.96470130135678,-2.20277241736117e-06,0.4932953715069
78.25,-2.85468054572584,-0.000271369732865377,0.974351153563139
78.3125,-2.67436767437999,-0.000494735064592033,1.43141516889835
78.375,-2.4282077095742,-0.000649370154420251,1.853232980677
78.4375,-2.12226622936883,-0.000721011473507033,2.22941803273296
78.5,-1.76407930851107,-0.000705247049144877,2.55070740134463
78.5625,-1.36246751221679,-0.000607270636421757,2.80918987898237
78.625,-0.927318589672945,-0.000440578677629611,2.99850077388519
78.6875,-0.469344232179703,-0.000225061396439576,3.11397862897099
78.75,0.000183154701147872,1.51491835218342e-05,3.15278000132965
78.8125,0.469707271411976,0.000253870026691842,3.11394947625632
78.875,0.927671642958267,0.000465036748002614,2.99844319204011
78.9375,1.3628033863376,0.000624872408542473,2.80910529637995
79,1.76439016849462,0.000714072153912535,2.55059791419221
79.0625,2.12254363547638,0.000719934277472987,2.22928635118431
79.125,2.42844288212096,0.000638221540228761,1.85308235973297
79.1875,2.67455197039501,0.000474381295039381,1.43124932620697
79.25,2.85480609089087,0.000243674139546521,0.974174176483948
79.3125,2.96476168910842,-3.01486595096529e-05,0.493111615948347
79.375,3.00170673417782,-0.000317676384243171,-9.29984652776605e-05
79.4375,2.96472827606697,-0.000587790604556545,-0.493295330398155
79.5,2.85473549693197,-0.000811944328139646,-0.974351098384193
79.5625,2.67443758732168,-0.000967821551240184,-1.43141510903236
79.625,2.42827693790083,-0.00104162805293899,-1.85323292575184
79.6875,2.12231929735911,-0.00102872677774987,-2.22941799102422
79.75,1.76410366930073,-0.000932836214229248,-2.55070737842864
79.8125,1.3624557662853,-0.000764342801156901,-2.80918987687561
79.875,0.927269771030661,-0.000538347093108994,-2.99850079082922
79.9375,0.469263942009721,-0.000272914949117619,-3.11397865991195
80,-0.000283778883866904,1.22432946772429e-05,-3.152780039006
80.0625,-0.469813556843116,0.000296681814402256,-3.1139495126876
80.125,-0.927767990809139,0.000559900883798054,-2.99844322012056
80.1875,-1.36287602539745,0.000782064280396308,-2.80910531125746
80.25,-1.76442957050584,0.000945005539579489,-2.5505979141549
80.3125,-2.12254617353449,0.00103367850492921,-2.22928633788159
80.375,-2.42841144842137,0.00103802585942256,-1.85308233769965
80.4375,-2.67449545090506,0.000954996601998806,-1.43124930179942
80.5,-2.8547377913196,0.000790205504126494,-0.974174156459355
80.5625,-2.96469698634681,0.000558604163877829,-0.493111605988118
80.625,-3.0016603609348,0.000283635920337046,9.29949871768532e-05
80.6875,-2.96471171170506,-5.28994776680374e-06,0.493295313153615
80.75,-2.85475492285721,-0.000276651034379041,0.974351070196793
80.8125,-2.67449277153968,-0.000501187125076423,1.43141507534475
80.875,-2.42836125443495,-0.000655828104583237,1.85323289357164
80.9375,-2.12242088774469,-0.000726397207921146,2.22941796756414
81,-1.76420754913778,-0.000708745857740715,2.55070736969919
81.0625,-1.36254650654778,-0.0006084301722129,2.80918988648642
81.125,-0.927334274431542,-0.000439330385527344,2.99850081920218
81.1875,-0.469293811561658,-0.000221682996976766,3.11397870403949
81.25,0.000290712397093382,2.01052849559034e-05,3.15278009279606
81.3125,0.469852830876319,0.000259662129308094,3.11394956784958
81.375,0.927829308173697,0.000470823063814149,2.99844326746507
81.4375,1.36294510963957,0.000629803842452635,2.80910534221579
81.5,1.76449074197411,0.000717392521509271,2.55059792228017
81.5625,2.12258517637523,0.000721088013395847,2.22928632007953
81.625,2.42841801404301,0.000636958526792767,1.85308229496381
81.6875,2.67446513439137,0.000470836323476418,1.43124923929407
81.75,2.85467275343241,0.000238391758558423,0.974174082891246
81.8125,2.96460558833453,-3.626846414709e-05,0.493111532333822
81.875,3.00155565492728,-0.000323518617721613,-9.30572142269215e-05
81.9375,2.96460910588327,-0.000592233153402209,-0.493295353816794
82,2.85466944292386,-0.000814090741218789,-0.974351082295457
82.0625,2.67443640477818,-0.00096720347397424,-1.43141505629357
82.125,2.42834084116743,-0.00103832569798194,-1.85323284574932
82.1875,2.12243692391234,-0.00102337444462705,-2.22941789800109
82.25,1.76425410264055,-0.000926507336712797,-2.5507072889476
82.3125,1.36261225724021,-0.00075833722177451,-2.8091898068678
82.375,0.927404495381114,-0.000533925122306157,-2.99850075275476
82.4375,0.469352948470427,-0.000271033907575772,-3.11397866054086
82.5,-0.000256309818359162,1.11351125923565e-05,-3.15278007821547
82.5625,-0.469852500058153,0.000292750206444544,-3.11394958348781
82.625,-0.927866409633436,0.000553905679228472,-2.99844330990435
82.6875,-1.36301640476108,0.000775214217900704,-2.80910540404761
82.75,-1.764586931253,0.000938713640222634,-2.55059799344884
82.8125,-2.12269251458359,0.00102926609796099,-2.22928638958603
82.875,-2.42852072722366,0.00103643825378387,-1.85308235263265
82.9375,-2.67454821656123,0.000956595511488778,-1.43124927731929
83,-2.85472464601003,0.000794689432260342,-0.974174096931039
83.0625,-2.96462025873456,0.000565078771793005,-0.493111522002964
83.125,-3.00153369310465,0.00029081829687115,9.30884931936715e-05
83.1875,-2.96455763252102,1.21492563917277e-06,0.493295399555088
83.25,-2.85460083921903,-0.000272016571323404,0.974351134134205
83.3125,-2.67436609093139,-0.000499192887651012,1.43141510545267
83.375,-2.42828450705721,-0.000656703599379528,1.85323288449994
83.4375,-2.12240771673009,-0.000729841350680577,2.22941792092945
83.5,-1.76426028278625,-0.000714041613176146,2.55070729379837
83.5625,-1.36265574474055,-0.000614619454078954,2.80918979482152
83.625,-0.927480562645075,-0.000445400040588431,2.99850072808066
83.6875,-0.469451104183414,-0.00022672369528928,3.11397862967273
83.75,0.000150416212229803,1.67867112333924e-05,3.1527800484156
83.8125,0.469754504107615,0.000258478516330207,3.11394956135241
83.875,0.927790452464752,0.000471881592392731,2.99844330000798
83.9375,1.36297264206936,0.000632908235959092,2.80910540800878
84,1.76457976579139,0.000722066649686477,2.55059800961547
84.0625,2.12271985407259,0.000726622779587743,2.2292864134144
84.125,2.42857438701622,0.000642489175645657,1.85308237768587
84.1875,2.67461538708221,0.000475455332621836,1.43124929667629
84.25,2.85479016292274,0.000241292083053284,0.974174104715465
84.3125,2.9646692785639,-3.56403435511641e-05,0.493111514710185
84.375,3.00155430970237,-0.000325333411552611,-9.31111535693585e-05
84.4375,2.96454298035936,-0.000596210139011057,-0.493295434472144
84.5,2.85455031619179,-0.000819516935093753,-0.974351175307624
84.5625,2.67428548260511,-0.000973047423230095,-1.43141514510122
84.625,2.42818498256137,-0.00104342862634644,-1.8532329145378
84.6875,2.1223038631207,-0.0010266811696891,-2.22941793452124
84.75,1.76416751650899,-0.000927288263259544,-2.55070728669909
84.8125,1.36258755497002,-0.000756353054920172,-2.80918976625561
84.875,0.9274460789778,-0.000529496987910825,-2.99850068101568
84.9375,0.46945343058455,-0.000265000387865033,-3.11397857045188
85,-0.000114791864989388,1.75699731873674e-05,-3.15277998581441
85.0625,-0.469695107723155,0.00029825176069168,-3.11394950521639
85.125,-0.927721128671799,0.000557282238459061,-2.99844325968148
85.1875,-1.36290906809433,0.000775674328998546,-2.80910539079584
85.25,-1.76453662398117,0.000936050981492745,-2.55059801951182
85.3125,-2.12270817830894,0.00102392632025695,-2.22928645031581
85.375,-2.42859956798946,0.00102944434821723,-1.85308243722167
85.4375,-2.67467620026116,0.000949339809285434,-1.4312493707236
85.5,-2.85487899390778,0.000788634639000017,-0.97417418254332
85.5625,-2.96477349971399,0.00056143760549444,-0.493111584605632
85.625,-3.00165855187097,0.000290291070039451,9.30600261768166e-05
85.6875,-2.96463188375266,3.85092588579394e-06,0.493295410281468
85.75,-2.8546112633876,-0.00026680233009789,0.974351182143812
85.8125,-2.67431082727313,-0.00049246000424069,1.43141518220687
85.875,-2.4281733845728,-0.000649734539233643,1.85323297634807
85.9375,-2.12226050423803,-0.000723868100809046,2.22941801153547
86,-1.76410316972631,-0.000710017231435146,2.55070736704484
86.0625,-1.3625166795023,-0.000613078031495488,2.80918983767795
86.125,-0.927384278512162,-0.000446417703521813,2.99850073292122
86.1875,-0.469414718357315,-0.000229966200384768,3.11397859563556
86.25,0.000120447367461631,1.19598923447809e-05,3.1527799815573
86.3125,0.46966353211836,0.000252886275710284,3.11394947357124
86.375,0.927654682496053,0.000466394686602363,2.99844320692687
86.4375,1.36281624769766,0.000628337760139966,2.80910532619503
86.5,1.7644305866066,0.000719070772453199,2.5505979536317
86.5625,2.12260444188235,0.000725630298283398,2.22928639322658
86.625,2.42851328211279,0.000643640454816737,1.8530823968888
86.6875,2.67461946489785,0.000478567692115409,1.43124935185296
86.75,2.85485870078527,0.000245862731930632,0.974174186044388
86.8125,2.96479008610563,-3.03806086482941e-05,0.493111607712608
86.875,3.00170589926863,-0.000320311015098662,-9.30230358604511e-05
86.9375,2.96469839086088,-0.000592354321630395,-0.493295366929279
87,2.85468190982317,-0.000817585951843741,-0.974351140366744
87.0625,2.67436986100921,-0.000973470832560466,-1.43141514898443
87.125,2.42820714805822,-0.00104620147763019,-1.85323295655266
87.1875,2.12225988518185,-0.0010313371319043,-2.22941800718443
87.25,1.76406522969507,-0.000932963542248274,-2.55070737707021
87.3125,1.36244516465829,-0.000761934771000746,-2.80918985824359
87.375,0.927288923113294,-0.000533832014461543,-2.99850075824611
87.4375,0.469309473338588,-0.000267126740612622,-3.113978619183
87.5,-0.00021993337843957,1.82145685429978e-05,-3.15277999738261
87.5625,-0.469742719574059,0.000301688771138572,-3.11394947757463
87.625,-0.92770272905245,0.000562953849987783,-2.99844319775873
87.6875,-1.36282791699352,0.000782525094116504,-2.80910530561531
87.75,-1.76440714472265,0.00094272321161697,-2.5505979262269
87.8125,-2.12255339322214,0.00102903637074297,-2.22928636551464
87.875,-2.42844700368617,0.00103188344937512,-1.85308237597852
87.9375,-2.67455299048698,0.000948529707686892,-1.43124934392158
88,-2.85480705116429,0.000784671800052424,-0.974174194942951
88.0625,-2.96476561511535,0.00055508316917023,-0.493111633999305
88.125,-3.00171611786874,0.000282803276257177,9.29824209616736e-05
88.1875,-2.96474464562155,-3.29910200866238e-06,0.493295318263218
88.25,-2.85475914410099,-0.000272257087213331,0.974351092073962
88.3125,-2.67446750102908,-0.00049525980398518,1.43141511010242
88.375,-2.4283109626679,-0.000649491419495014,1.85323293503473
88.4375,-2.12235449882885,-0.000720797703411217,2.22941800836367
88.5,-1.76413685161755,-0.000704838535649073,2.55070740258167
88.5625,-1.36248405422971,-0.00060682318491672,2.80918990560294
88.625,-0.927291151282792,-0.000440208538856244,2.99850082114967
88.6875,-0.469277658862822,-0.000224809794753334,3.11397868846752
88.75,0.000277055374265374,1.53211894127544e-05,3.15278006247192
88.8125,0.46981183087603,0.000254056133043659,3.11394952816756
88.875,0.927768297315912,0.000465339315067408,2.99844322548836
88.9375,1.36287497903369,0.000625352283196734,2.80910530541906
89,1.76442400253146,0.000714712473917758,2.55059789721848
89.0625,2.1225337322203,0.000720632049139793,2.22928631122003
89.125,2.4283910448268,0.00063881181291749,1.85308230388768
89.1875,2.67446746316649,0.000474687649382783,1.43124926441369
89.25,2.8547039901275,0.000243569503462527,0.974174119733008
89.3125,2.96466020074174,-3.06916725461462e-05,0.493111574332432
89.375,3.00162395410231,-0.000318564251197654,-9.30175435053249e-05
89.4375,2.9646789703074,-0.000588826493205635,-0.493295323543838
89.5,2.85472847457466,-0.0008128812399863,-0.974351066815527
89.5625,2.67447413368282,-0.000968435062150762,-1.43141505836403
89.625,2.42835058662108,-0.00104178504773837,-1.85323286499802
89.6875,2.12241698175009,-0.00102842708648691,-2.22941793099474
89.75,1.76420804780805,-0.000932212856604215,-2.55070732980559
89.8125,1.36254830808906,-0.000763620395031557,-2.80918984831152
89.875,0.927334052722269,-0.000537771708609519,-2.99850078740606
89.9375,0.469288568925075,-0.000272677544547222,-3.11397868223653
90,-0.000303146173166108,1.20662260937505e-05,-3.15278008310227
90.0625,-0.469873431144373,0.000296152438911428,-3.11394957070553
90.125,-0.927857679081086,0.000559201800787027,-2.9984432817345
90.1875,-1.36297953120691,0.000781443167050115,-2.80910536550447
90.25,-1.7645284398113,0.000944699045290103,-2.55059795138565
90.3125,-2.12262277767664,0.00103383838093741,-2.22928635147629
90.375,-2.42845212037673,0.00103867026970414,-1.85308232524416
90.4375,-2.67449291684648,0.000956002281935629,-1.43124926551392
90.5,-2.85469246477939,0.000791343601811932,-0.97417410280195
90.5625,-2.96461689458073,0.000559608238738751,-0.493111544505927
90.625,-3.00155971648135,0.000284279855421475,9.30533552905288e-05
90.6875,-2.96460838329371,-5.12932484302876e-06,0.493295358024443
90.75,-2.85466725576953,-0.000276965948603607,0.974351093588406
90.8125,-2.67443632333778,-0.000501852488855918,1.43141507309657
90.875,-2.42834602700219,-0.000656649742872498,1.85323286608596
90.9375,-2.12244954816694,-0.000727176741138719,2.22941791973363
91,-1.7642749558696,-0.000709340076239288,2.5507073100366
91.0625,-1.36264062495216,-0.000608786118361305,2.80918982560945
91.125,-0.927438318553836,-0.000439486673263918,2.99850076794322
91.1875,-0.469389230901618,-0.000221739611677348,3.11397867151744
91.25,0.000220932549461141,2.00363053543247e-05,3.15278008479424
91.3125,0.46982114262415,0.000259507142533023,3.11394958578719
91.375,0.927841386058786,0.000470580725950322,2.99844330814655
91.4375,1.36299884146783,0.000629550597205434,2.80910539840067
91.5,1.76457660489816,0.000717257288150691,2.55059798397211
91.5625,2.12268793134818,0.000721204080493081,2.22928637630517
91.625,2.42851941724827,0.000637408836887607,1.85308233572301
91.6875,2.67454718329158,0.000471611540846149,1.43124925733794
91.75,2.85472088988495,0.000239377282641189,0.974174075011704
91.8125,2.96461128878439,-3.52694645369572e-05,0.493111499931914
91.875,3.00151794671841,-0.000322731293239604,-9.31083755844053e-05
91.9375,2.96453473985141,-0.000591842582077067,-0.493295414637104
92,2.85457169162319,-0.000814181650460269,-0.974351141954985
92.0625,2.6743327003409,-0.000967729203043647,-1.43141510417757
92.125,2.42824967331063,-0.0010391183669271,-1.8532328733358
92.1875,2.12237455020286,-0.00102419439318422,-2.22941790038006
92.25,1.7642316563921,-0.000927116328024308,-2.55070726569494
92.3125,1.36263376748471,-0.00075857178037893,-2.80918976212147
92.375,0.927466170932741,-0.000533746524061957,-2.99850069447931
92.4375,0.469443853156156,-0.000270539234440495,-3.11397859910859
92.5,-0.000152311111949863,1.17439934219885e-05,-3.1527800245593
92.5625,-0.469753870800912,0.000293230060696949,-3.11394954715498
92.625,-0.927790657128927,0.000554048504967756,-2.99844329735706
92.6875,-1.36297696583159,0.000774913921794696,-2.80910541751446
92.75,-1.76459078201024,0.000938002361622137,-2.55059803052909
92.8125,-2.12273892944769,0.00102830844682823,-2.22928644367865
92.875,-2.42860140802438,0.00103548438267093,-1.85308241411227
92.9375,-2.67464876889202,0.000955907044408785,-1.43124933524735
93,-2.8548271403068,0.000794461504689237,-0.974174141002354
93.0625,-2.96470642046563,0.000565383142242297,-0.493111544379099
93.125,-3.0015881544006,0.000291585513198025,9.30917918178231e-05
93.1875,-2.9645706665572,2.26019167941238e-06,0.493295427940332
93.25,-2.85457009069654,-0.000270933886614852,0.974351182553624
93.3125,-2.67429699471124,-0.000498296820464114,1.43141516529068
93.375,-2.42818932054425,-0.000656140050202795,1.85323294510861
93.4375,-2.12230333836213,-0.000729646199665585,2.22941797152342
93.5,-1.76416524499934,-0.000714146342403226,2.55070732537571
93.5625,-1.36258691659512,-0.00061488937219777,2.80918980176495
93.625,-0.927450148813436,-0.000445689950225319,2.99850070915702
93.6875,-0.46946447411607,-0.000226931231125833,3.11397858825241
93.75,9.56829270378277e-05,1.66878158920846e-05,3.15277999187153
93.8125,0.469668186557755,0.000258435480295864,3.11394949974682
93.875,0.927687948239292,0.000471789884563095,2.99844324430153
93.9375,1.36287222770075,0.000632659084828197,2.8091053681101
94,1.76449934513535,0.000721597996896507,2.55059799262005
94.0625,2.12267377303357,0.000725955413222196,2.22928642234268
94.125,2.42857088127987,0.000641734169367079,1.85308241094766
94.1875,2.67465511697673,0.000474788163728847,1.4312493483548
94.25,2.85486609616146,0.000240900204043827,0.974174165618799
94.3125,2.96476794179036,-3.56198954539694e-05,0.49311157400487
94.375,3.00165818613977,-0.000324865127169146,-9.30640149295892e-05
94.4375,2.96463362685144,-0.000595381158007261,-0.493295407876057
94.5,2.85461164486759,-0.000818518788971436,-0.974351173988305
94.5625,2.67430662313173,-0.000972122295655237,-1.43141516929581
94.625,2.42816221567989,-0.00104279668052965,-1.85323295994318
94.6875,2.12224128155893,-0.00102647274077103,-2.22941799305964
94.75,1.76407629592868,-0.000927503578748292,-2.55070734795326
94.8125,1.36248396495757,-0.000756862963806123,-2.8091898193242
94.875,0.927348588179791,-0.000530084507911048,-2.99850071645438
94.9375,0.469379421085778,-0.000265429748435111,-3.11397858195447
95,-0.000152116487679473,1.74784357990585e-05,-3.15277997133605
95.0625,-0.469689070815524,0.000298563881579956,-3.11394946733664
95.125,-0.927672767818663,0.000557927097391412,-2.99844320514404
95.1875,-1.36282695024285,0.000776463391213882,-2.80910532930717
95.25,-1.7644353212563,0.000936734105770866,-2.5505979620124
95.3125,-2.12260567556405,0.00102426813138281,-2.22928640703485
95.375,-2.42851406315745,0.00102929761826893,-1.85308241585693
95.4375,-2.67462286666818,0.000948692615424638,-1.43124937507261
95.5,-2.85486728060512,0.000787615873087759,-0.974174211830246
95.5625,-2.96480545026965,0.000560278897890975,-0.493111633618695
95.625,-3.00172844088862,0.000289257787481335,9.30000081375004e-05
95.6875,-2.96472723586785,3.16515081761866e-06,0.49329534993696
95.75,-2.85471507339344,-0.00026702189613683,0.974351132208722
95.8125,-2.67440458620578,-0.000492222953528789,1.431415151566
95.875,-2.42824037314301,-0.000649162781970598,1.85323297045305
95.9375,-2.12228876747922,-0.000723146993833548,2.22941803143373
96,-1.76408764357863,-0.000709331947185629,2.55070740919456
96.0625,-1.36246009109377,-0.000612556790217021,2.80918989457694
96.125,-0.927296660191297,-0.000446099703613785,2.9985007944435
96.1875,-0.469311622182404,-0.00022980284454936,3.11397865083399
96.25,0.000220716854865484,1.20731843328382e-05,3.15278002061168
96.3125,0.469743174486922,0.000253060120528074,3.11394948953572
96.375,0.927699568094964,0.000466695510113435,2.99844319696469
96.4375,1.36281843116518,0.000628754855530603,2.80910529208173
96.5,1.76438972014811,0.000719512457155945,2.55059790143832
96.5625,2.12252783690737,0.000725951412738648,2.22928633223828
96.625,2.42841460821729,0.000643692823978017,1.85308233795333
96.6875,2.67451631759249,0.000478256809006077,1.43124930545315
96.75,2.85476947068811,0.00024519076559056,0.974174160432677
96.8125,2.96473068668756,-3.13018400404509e-05,0.493111607445036
96.875,3.00168693547195,-0.000321283963836112,-9.2997909572734e-05
96.9375,2.9647232724723,-0.000593150842036001,-0.493295320877344
97,2.85474624531347,-0.00081801662271433,-0.974351081580326
97.0625,2.67446223960166,-0.000973445466675056,-1.43141508792098
97.125,2.42831117067227,-0.00104575977066656,-1.85323290407764
97.1875,2.12235708264771,-0.00103063806747348,-2.22941797263647
97.25,1.76413834883037,-0.00093223619879091,-2.55070736659778
97.3125,1.36248123750516,-0.000761406324631481,-2.80918987371132
97.375,0.927281573401287,-0.000533656194676653,-2.99850079690087
97.4375,0.469260050083355,-0.000267335471344793,-3.11397867414431
97.5,-0.000302596540986686,1.77213401090725e-05,-3.1527800588684
97.5625,-0.469843876317251,0.000301112016613435,-3.11394953464285
97.625,-0.927804343865458,0.000562532579173261,-2.9984432402556
97.6875,-1.36291187363817,0.000782460589435662,-2.80910532598202
97.75,-1.76445846901206,0.000943113447904072,-2.55059792084319
97.8125,-2.12256291690524,0.00102984116983415,-2.22928633534235
97.875,-2.42841299553774,0.0010329320317172,-1.85308232638891
97.9375,-2.67448146432575,0.000949569194085804,-1.43124928373816
98,-2.85471069585169,0.000785441807017929,-0.974174134873069
98.0625,-2.96466153679573,0.000555392652436984,-0.493111584729482
98.125,-3.00162279614745,0.000282584845890338,9.30121269807627e-05
98.1875,-2.96467864535475,-3.97437564435407e-06,0.49329532312105
98.25,-2.85473216801517,-0.000273207708743735,0.974351071220096
98.3125,-2.67448430771638,-0.000496253712790735,1.43141506724862
98.375,-2.42836852042111,-0.000650316748218891,1.85323287780648
98.4375,-2.12244252575358,-0.000721321195522248,2.22941794694435
98.5,-1.76423964570223,-0.000705033928215949,2.55070734790079
98.5625,-1.36258328752334,-0.000606762842841984,2.80918986738973
98.625,-0.927369130882051,-0.000440023991066683,2.99850080620184
98.6875,-0.46932047450666,-0.000224636448872983,3.11397869944214
98.75,0.000277056981589083,1.53957803264254e-05,3.15278009741272
98.8125,0.469854685026788,0.000254023276562989,3.11394958085484
98.875,0.927846415509576,0.000465269651045758,2.99844328654648
98.9375,1.36297449937722,0.000625366048305867,2.80910536398577
99,1.76452725609471,0.000714929817916583,2.55059794287692
99.0625,2.12262238663426,0.000721120498465889,2.22928633585024
99.125,2.42844936590948,0.00063954953416728,1.85308230311079
99.1875,2.67448511429035,0.000475556618125277,1.43124923836928
99.25,2.85467787120722,0.000244383073593969,0.974174073052816
99.3125,2.96459499956019,-3.0134084920501e-05,0.493111515319406
99.375,3.00153131183473,-0.000318412652821965,-9.30783929206092e-05
99.4375,2.96457540976558,-0.000589127807842154,-0.493295375405933
99.5,2.85463245993392,-0.000813557765558397,-0.974351100462619
99.5625,2.67440278503275,-0.00096930301401597,-1.43141506780777
99.625,2.42831663405481,-0.00104260864376794,-1.8532328485563
99.6875,2.12242650095836,-0.00102899101220497,-2.22941789159151
99.75,1.76425937992835,-0.00093238921861785,-2.55070727445141
99.8125,1.36263235572432,-0.000763408028228862,-2.80918978685729
99.875,0.927435899167599,-0.000537295091082874,-2.99850073078859
99.9375,0.469390132314672,-0.000272145875956959,-3.11397864053105
100,-0.000219896041705758,1.2426694858765e-05,-3.15278006372912
100.0625,-0.469823265488075,0.000296171749546832,-3.11394957710918
100.125,-0.927849482705953,0.000558822720787814,-2.99844331277188
100.1875,-1.36301472221878,0.000780743164486338,-2.80910541564932
100.25,-1.7646007175173,0.000943870397379688,-2.55059801171347
100.3125,-2.12271924357004,0.00103313164106923,-2.22928641125349
100.375,-2.42855557290548,0.00103831797688232,-1.85308237383652
100.4375,-2.67458491183696,0.00095614676282528,-1.43124929427835
100.5,-2.85475659707316,0.000791992150850477,-0.974174106623984
100.5625,-2.96464171695937,0.000560630344731967,-0.49311152270762
100.625,-3.00154077640085,0.000285447104890307,9.30968947575606e-05
100.6875,-2.96454901491269,-4.07440497121733e-06,0.493295415557235
100.75,-2.85457798630642,-0.000276235173432653,0.974351154878366
100.8125,-2.67433299946503,-0.000501555525040231,1.43141512723875
100.875,-2.42824699482474,-0.000656772757772248,1.85323290344656
100.9375,-2.12237238874705,-0.000727600669944031,2.22941793366614
101,-1.76423335726524,-0.000709889834992412,2.55070729806353
101.0625,-1.3626419473029,-0.000609292645121299,2.80918978986311
101.125,-0.927482285285974,-0.000439840778783259,2.99850071478683
101.1875,-0.46946797867227,-0.000221920681803525,3.11397861041126
101.25,0.000121454284114936,1.99645722412999e-05,3.15278002661128
101.3125,0.469718671548552,0.000259430791838176,3.11394954087825
101.375,0.927754191235774,0.000470386781262667,2.9984432844986
101.4375,1.36294247321827,0.000629177587309912,2.80910540021733
101.5,1.76456112842831,0.00071672746916167,2.55059801092665
101.5625,2.1227161362206,0.000720625541993876,2.22928642360033
101.625,2.4285863212639,0.000636945433165474,1.85308239494554
101.6875,2.6746409191185,0.000471429492078658,1.43124931795425
101.75,2.8548248167521,0.000239585855199114,0.974174126240032
101.8125,2.96470695352751,-3.46626664541215e-05,0.493111532660629
101.875,3.00158836725636,-0.000321833719765107,-9.30999686782341e-05
101.9375,2.96456742674695,-0.000590852053359456,-0.493295432049709
102,2.85456087000056,-0.0008133298109288,-0.974351182090909
102.0625,2.67428033680393,-0.000967210886586323,-1.43141515989836
102.125,2.42816512526331,-0.00103903042816717,-1.85323293472844
102.1875,2.12227290019971,-0.00102450503220962,-2.22941795652009
102.25,1.76413102814253,-0.000927675728670765,-2.55070730659163
102.3125,1.36255210123921,-0.000759160795940841,-2.80918978049683
102.375,0.927418031994571,-0.000534147472329362,-2.9985006870635
102.4375,0.46943784118541,-0.000270605981174085,-3.11397856722285
102.5,-0.000115091340792799,1.20387572408242e-05,-3.1527799738803
102.5625,-0.46968000537228,0.000293784988327497,-3.11394948670321
102.625,-0.927693250970911,0.00055466433609782,-2.99844323789056
102.6875,-1.36287331121978,0.000775355702116366,-2.80910536961326
102.75,-1.76449928225754,0.000938074380653717,-2.55059800271364
102.8125,-2.12267582491882,0.00102791871982713,-2.22928644089436
102.875,-2.42857788684637,0.00103467796598849,-1.8530824368504
102.9375,-2.67466897641275,0.000954856725792853,-1.43124937946014
103,-2.85488744156269,0.00079341807626887,-0.974174198822647
103.0625,-2.96479604702062,0.00056460107799301,-0.493111605519105
103.125,-3.00169112054971,0.000291248337061253,9.3038208921925e-05
103.1875,-2.96466861391924,2.42972065051406e-06,0.493295391446795
103.25,-2.85464555493146,-0.000270328879274577,0.974351169642419
103.3125,-2.67433651295329,-0.000497430701805595,1.43141517825756
103.375,-2.42818582653937,-0.000655231017945766,1.85323298164526
103.4375,-2.12225741916023,-0.000728888302609323,2.22941802512785
103.5,-1.76408503575321,-0.000713655080873883,2.55070738650804
103.5625,-1.3624866524241,-0.000614677288734173,2.80918985954651
103.625,-0.927347631624263,-0.000445677876688165,2.99850075330691
103.6875,-0.469377905220117,-0.000226989045966118,3.11397861091676
103.75,0.000150940878603102,1.66861496501522e-05,3.15277998902095
103.8125,0.469682342358003,0.000258561630267566,3.1139494718924
103.875,0.927658523618724,0.000472032428554693,2.99844319640225
103.9375,1.36280449784344,0.000632925874100243,2.80910530868961
104,1.76440539989458,0.00072174898046962,2.55059793224881
104.0625,2.12257036582488,0.000725855235247585,2.22928637175885
104.125,2.42847644828013,0.000641306880490501,1.85308237914744
104.1875,2.67458649691089,0.000474054872008776,1.43124934099284
104.25,2.85483553431294,0.000239985322935555,0.974174184003944
104.3125,2.96478091137277,-3.65181078062723e-05,0.493111614867983
104.375,3.00171241475372,-0.00032553187287883,-9.30079417458263e-05
104.4375,2.96471950127509,-0.000595652178853031,-0.49329534656688
104.5,2.85471392208132,-0.000818334661002533,-0.974351118349272
104.5625,2.67440714296412,-0.000971550655360304,-1.43141512922672
104.625,2.42824313221157,-0.0010420135161183,-1.85323294257526
104.6875,2.12228823818212,-0.00102570796834485,-2.22941800148442
104.75,1.76408097913457,-0.000926968641703064,-2.550707380673
104.8125,1.36244558263706,-0.000756684375150628,-2.80918987051646
104.875,0.927274009697209,-0.00053026498464817,-2.99850077700817
104.9375,0.469281954488901,-0.000265849156273651,-3.11397864109314
105,-0.000255092392030645,1.70230091146678e-05,-3.1527800185356
105.0625,-0.469779198226041,0.000298291693346115,-3.11394949419954
105.125,-0.927733975622987,0.000558001586369199,-2.99844320689333
105.1875,-1.36284831282655,0.000776936633878303,-2.80910530563542
105.25,-1.76441300199291,0.000937525483744754,-2.5505979171356
105.3125,-2.12254360927044,0.00102518470049242,-2.22928634893971
105.375,-2.42842325602524,0.00103009078470624,-1.85308235488027
105.4375,-2.67451943808221,0.000949133793814647,-1.43124932206274
105.5,-2.85476959512535,0.000787566933654502,-0.974174176216184
105.5625,-2.96473085003503,0.000559734366273076,-0.493111621734427
105.625,-3.00169015991282,0.000288345113529707,9.29860494771617e-05
105.6875,-2.96473204539565,2.10369797162217e-06,0.493295312619863
105.75,-2.85476207738464,-0.000267988566480264,0.974351078174051
105.8125,-2.67448538126922,-0.000492898552433835,1.4314150904282
105.875,-2.42834054434309,-0.000649450447328271,1.85323291309061
105.9375,-2.12239045366115,-0.000723066688768779,2.2294179880539
106,-1.7641727155619,-0.000708999914498664,2.55070738751538
106.0625,-1.36251337713586,-0.000612136347706529,2.80918989845403
106.125,-0.927308644868142,-0.000445741276104549,2.99850082318461
106.1875,-0.469280138669233,-0.000229593438951593,3.11397869932191
106.25,0.000290101952515266,1.21350329120147e-05,3.1527800802166
106.3125,0.469838152016723,0.000253056781519829,3.11394954965164
106.375,0.92780327656972,0.000466753570159276,2.9984432468972
106.4375,1.36291245666489,0.000628992102177759,2.80910532295038
106.5,1.76445737229896,0.000719986636987,2.55059790775482
106.5625,2.12255711820368,0.000726628622214362,2.22928631288197
106.625,2.42840034843911,0.000644447440426814,1.85308229636933
106.6875,2.67446109352905,0.000478904725116872,1.43124924903793
106.75,2.85468314744859,0.000245546366769323,0.974174099220738
106.8125,2.96462866215532,-3.13632743639126e-05,0.493111552323925
106.875,3.0015874002834,-0.000321779728222053,-9.30371355262194e-05
106.9375,2.96464397315546,-0.000593977176638709,-0.493295337228714
107,2.85470132666556,-0.000818974514804384,-0.974351072145998
107.0625,2.67445972824934,-0.000974298946646112,-1.43141505437776
107.125,2.42835154755865,-0.00104630806635882,-1.85323285239152
107.1875,2.12243319829197,-0.00103077755247104,-2.22941791200325
107.25,1.76423669617857,-0.000931991243586561,-2.55070730780756
107.3125,1.36258435562713,-0.000760918802760225,-2.80918982722612
107.375,0.927371154189641,-0.000533137370221521,-2.99850077099318
107.4375,0.469320195212309,-0.000266996170248535,-3.11397867342366
107.5,-0.000282547699011983,1.77398900146998e-05,-3.15278008346061
107.5625,-0.469867450691385,0.00030078500337903,-3.1139495801688
107.625,-0.927867307698112,0.000561961530023011,-2.99844329861157
107.6875,-1.36300298594764,0.000781843065657872,-2.80910538678299
107.75,-1.7645614814913,0.000942681403220437,-2.55059797327179
107.8125,-2.12265946458868,0.00102978677610618,-2.22928637007238
107.875,-2.42848586409949,0.00103334435698459,-1.85308233724414
107.9375,-2.67451765278064,0.000950402442162709,-1.43124926879081
108,-2.85470372970872,0.000786526044546174,-0.974174096784665
108.0625,-2.964612619982,0.000556483887817814,-0.49311153027739
108.125,-3.00154059662342,0.000283437923627892,9.30732538301227e-05
108.1875,-2.96457775252135,-3.53424269288263e-06,0.493295380047537
108.25,-2.85463049645579,-0.000273237937544968,0.974351113818249
108.3125,-2.6743999093832,-0.000496686001949995,1.43141508793911
108.375,-2.42831637264343,-0.0006509880507888,1.85323287290898
108.4375,-2.12243186666914,-0.000722031735053986,2.22941791733187
108.5,-1.76427233117185,-0.000705611882652947,2.55070729884388
108.5625,-1.36265346169919,-0.000607114424848749,2.80918980761939
108.625,-0.92746426879148,-0.000440153717660309,2.99850074635471
108.6875,-0.469423610930245,-0.000224632903802557,3.11397865016666
108.75,0.000184309006918869,1.54021025974056e-05,3.1527800674746
108.8125,0.469788863087303,0.000253914876309171,3.1139495755773
108.875,0.927819265913842,0.000464990943733493,2.99844330686465
108.9375,1.36299088771242,0.000624949769030939,2.80910540628143
109,1.76458430187296,0.000714491599678721,2.55059799962373
109.0625,2.12270997597662,0.000720822537565495,2.2292863969538
109.125,2.42855195112115,0.000639544569155562,1.85308235770283
109.1875,2.6745844802325,0.000475930638494524,1.43124927674035
109.25,2.85475637629899,0.00024511663892098,0.974174088379299
109.3125,2.96463871470882,-2.91712660081111e-05,0.493111504874307
109.375,3.0015324986923,-0.000317429874250928,-9.31127529718578e-05
109.4375,2.96453389726975,-0.000588352951507062,-0.493295427569827
109.5,2.85455567419705,-0.000813167457357099,-0.974351161152311
109.5625,2.67430442737054,-0.000969366732607254,-1.43141512622664
109.625,2.42821424257767,-0.00104306622874903,-1.8532328943093
109.6875,2.12233832981523,-0.00102967189174315,-2.22941791653616
109.75,1.76420115161501,-0.000933067321626848,-2.55070727414802
109.8125,1.36261446428645,-0.000763874178702668,-2.80918976135914
109.875,0.927461561727399,-0.00053742312791248,-2.9985006846338
109.9375,0.469454817516148,-0.000271931366018796,-3.11397858193473
110,-0.000127661248658192,1.28670100666373e-05,-3.1527800031199
110.0625,-0.469719854411898,0.000296639170919689,-3.1139495252726
110.125,-0.92775325601002,0.000559102075314693,-2.99844327893016
110.1875,-1.36294276164512,0.000780674228074138,-2.80910540582101
110.25,-1.76456578715688,0.000943402912219728,-2.55059802764345
110.3125,-2.12272751917421,0.00103234616857975,-2.22928645010344
110.375,-2.42860554321049,0.00103740511007132,-1.85308242869211
110.4375,-2.67466764746767,0.000955350511584322,-1.43124935537934
110.5,-2.85485733932023,0.000791535423002048,-0.974174163099641
110.5625,-2.96474250383996,0.000560646897032692,-0.49311156451141
110.625,-3.0016236387448,0.000285942318659752,9.30771986079604e-05
110.6875,-2.96459917369176,-3.22158909437688e-06,0.493295421472624
110.75,-2.85458648216721,-0.000275231058654098,0.974351185351437
110.8125,-2.6742982865065,-0.000500626172516425,1.43141517684652
110.875,-2.42817521506963,-0.00065609652969769,1.85323296336187
110.9375,-2.12227627862505,-0.000727260586541477,2.22941799322677
111,-1.76412998090331,-0.000709859827890826,2.55070734667109
111.0625,-1.3625496601394,-0.000609459944547074,2.80918981886962
111.125,-0.927417468355117,-0.000440054846292189,2.99850071903289
111.1875,-0.469442124548283,-0.000222051104323233,3.11397858914453
111.25,0.000103785594840701,1.99807637167995e-05,3.15277998361929
111.3125,0.46966066330791,0.000259567702451379,3.11394948381294
111.375,0.927666203199141,0.000470540743230697,2.9984432235138
111.4375,1.3628401982774,0.00062920688466484,2.80910534616142
111.5,1.76446280057725,0.000716507565711854,2.55059797341375
111.5625,2.12263928648172,0.000720101325931775,2.22928640930083
111.625,2.42854465866681,0.000636162275760568,1.85308240640047
111.6875,2.67464189166,0.000470531121812825,1.43124935312485
111.75,2.85486828636233,0.000238777635560171,0.974174178871145
111.8125,2.96478522088594,-3.51746881014419e-05,0.493111593391041
111.875,3.0016875420803,-0.00032190861987112,-9.30419412197292e-05
111.9375,2.9646698996829,-0.000590462470146364,-0.493295387047155
112,2.85464844615217,-0.000812575573282216,-0.974351158120938
112.0625,2.67433747317655,-0.000966291680328359,-1.43141516122711
112.125,2.42818169597412,-0.0010381854321545,-1.85323296112152
112.1875,2.12224599746427,-0.00102393919071751,-2.22941800328322
112.25,1.76406547876993,-0.000927497148320177,-2.55070736540424
112.3125,1.36245960701978,-0.000759349825431421,-2.80918984089257
112.375,0.92731508720154,-0.000534567074722167,-2.99850073829429
112.4375,0.469342797866877,-0.000271049333175514,-3.1139786001721
112.5,-0.000185288159194089,1.17791590354113e-05,-3.15277998268604
112.5625,-0.469712831887361,0.00029384866044912,-3.11394946980136
112.625,-0.927682832175629,0.000555075981945012,-2.99844319829208
112.6875,-1.36282146573087,0.000776014862800822,-2.80910531436749
112.75,-1.76441519858291,0.000938785168553603,-2.55059794165192
112.8125,-2.12257442670107,0.00102845087313434,-2.22928638488068
112.875,-2.42847717778639,0.00103484025644948,-1.85308239584936
112.9375,-2.67458683712583,0.000954559097678307,-1.43124936076352
113,-2.85483844822743,0.000792701939502593,-0.974174205753986
113.0625,-2.96478887792006,0.000563627555377836,-0.493111636843815
113.125,-3.00172701207155,0.000290248592018926,9.2988065555466e-05
113.1875,-2.96474114083619,1.6344398755452e-06,0.493295331407117
113.25,-2.85474177406025,-0.000270757112645326,0.9743511103883
113.3125,-2.67443926659254,-0.000497440286566233,1.43141513033248
113.375,-2.4282767956533,-0.000654886872884921,1.85323295357631
113.4375,-2.12232038288422,-0.000728340436537821,2.22941802190812
113.5,-1.76410875718542,-0.000713082628165915,2.55070740870912
113.5625,-1.36246687731043,-0.00061422769803263,2.80918990321582
113.625,-0.927287844517878,-0.000445421370826427,2.99850081067154
113.6875,-0.469288708828793,-0.000226902443567771,3.11397867176807
113.75,0.000253712528186516,1.67022694190635e-05,3.15278004253181
113.8125,0.469780441157661,0.000258639260333012,3.11394950854396
113.875,0.927734533841075,0.000472281110918457,2.99844320967722
113.9375,1.36284493437533,0.000633384983018079,2.80910529623001
114,1.7644031071597,0.000722363776869871,2.55059789627435
114.0625,2.12252579065649,0.000726485807219067,2.2292863186709
114.125,2.42839756025176,0.000641768555760739,1.85308231838878
114.1875,2.67448737021776,0.0004741780530072,1.43124928337021
114.25,2.85473384344893,0.000239675400152177,0.974174139765941
114.3125,2.96469478618706,-3.72413372761553e-05,0.493111591882596
114.375,3.00165721454205,-0.000326530105809426,-9.30055846792843e-05
114.4375,2.96470508201287,-0.000596703377508917,-0.493295319284506
114.5,2.8547428831298,-0.000819196992638238,-0.974351070993427
114.5625,2.67447436520103,-0.000972035260669961,-1.43141507022073
114.625,2.4283366896219,-0.00104204187123615,-1.85323288241665
114.6875,2.12239152046923,-0.00102533434080992,-2.22941795087852
114.75,1.76417564743282,-0.000926360016582924,-2.55070734862551
114.8125,1.36251483228611,-0.00075606474807736,-2.8091898627309
114.875,0.927305559585815,-0.000529842629432053,-2.9985007948699
114.9375,0.469270231300237,-0.000265750432998109,-3.11397868142189
115,-0.000307963368458828,1.67925883026807e-05,-3.15278007415264
115.0625,-0.469863771750361,0.000297847463414467,-3.11394955520609
115.125,-0.927835167141976,0.000557541212439745,-2.99844326243334
115.1875,-1.36294808212157,0.000776675156808728,-2.80910534582792
115.25,-1.76449356253351,0.000937624121534574,-2.55059793483173
115.3125,-2.12259059245801,0.00102569588671485,-2.22928634099499
115.375,-2.42842826745985,0.00103093737730543,-1.85308232271167
115.4375,-2.67448155103168,0.000950129815463668,-1.43124927139542
115.5,-2.85469551536955,0.000788473570717969,-0.974174116066012
115.5625,-2.96463372263067,0.000560332875192563,-0.493111562803218
115.625,-3.00158723012952,0.000288502391136825,9.30332779777165e-05
115.6875,-2.96464159005876,1.80902892926108e-06,0.49329533974385
115.75,-2.85470015276129,-0.000268626710744029,0.974351080367918
115.8125,-2.67446296628844,-0.000493692891907978,1.431415067303
115.875,-2.42836158752431,-0.000650197402000254,1.85323286876249
115.9375,-2.12245117120139,-0.000723609454195469,2.22941793041131
116,-1.76426226529122,-0.000709271578684757,2.5507073268164
116.0625,-1.36261578818644,-0.000612170241612031,2.80918984549995
116.125,-0.927405659521087,-0.000445647143738217,2.99850078739679
116.1875,-0.469354460672958,-0.000229509145142949,3.11397868706599
116.25,0.000251730464002261,1.20991298085563e-05,3.15278009366973
116.3125,0.469842592265579,0.000252861940946039,3.11394958641644
116.375,0.927849772911897,0.000466450518682019,2.99844330042978
116.4375,1.36299277137284,0.000628706388831571,2.80910538372563
116.5,1.76455725135126,0.000719875708316444,2.55059796496196
116.5625,2.12265882736881,0.00072682422765123,2.22928635634649
116.625,2.42848582853953,0.000645002460223485,1.85308231836165
116.6875,2.67451517355214,0.00047976307886716,1.43124924564821
116.75,2.85469624378962,0.00024654795889483,0.97417407105187
116.8125,2.96459848364069,-3.04418457400552e-05,0.493111504385357
116.875,3.00151935551855,-0.000321160210633335,-9.30963172608434e-05
116.9375,2.96455020770725,-0.00059381100816409,-0.493295397127409
117,2.85459856148851,-0.000819293463761033,-0.974351122106049
117.0625,2.67436628414554,-0.000975002493324837,-1.43141508550899
117.125,2.4282840853039,-0.00104719290919052,-1.85323285915332
117.1875,2.12240375456675,-0.00103160015877454,-2.22941789319069
117.25,1.76425054265175,-0.000932542912737618,-2.55070726676649
