time,ax,ay,az
0,-8.09518129779603e-05,5.68436458936268e-06,-1.89941105967891
0.0625,-0.28182029068005,0.000126157113930027,-1.87562727003079
0.125,-0.55662679325761,0.000236728920660154,-1.80475566938001
0.1875,-0.817731894024247,0.000328783651832421,-1.68877255306654
0.25,-1.05870363173611,0.000395098707653001,-1.53085945345069
0.3125,-1.27360550902257,0.000430473463527063,-1.3352729403708
0.375,-1.45714319606896,0.00043227467729129,-1.10718287715414
0.4375,-1.60479537416131,0.000400823986044933,-0.852492075312234
0.5,-1.71292541304737,0.000339538536546109,-0.577649687899638
0.5625,-1.77887107245914,0.000254746533438899,-0.289468816093529
0.625,-1.80100999398081,0.000155140474952932,0.00504414740197417
0.6875,-1.77879938418802,5.08962140682286e-05,0.298844423089507
0.75,-1.71278896104266,-4.74416972531156e-05,0.584987464501344
0.8125,-1.60460692014507,-0.000130151906131382,0.85675366592615
0.875,-1.45691935435978,-0.000189428424343896,1.10776342827284
0.9375,-1.27336421101107,-0.000220217490301601,1.33208748924985
1,-1.05846148016985,-0.000220697853938022,1.52435675752454
1.0625,-0.817501863901456,-0.00019237102569675,1.67987409197361
1.125,-0.556416671211943,-0.000139788913426186,1.79472788549412
1.1875,-0.281632110701196,-6.99868536737666e-05,1.86590441641664
1.25,8.84919841287064e-05,8.29268033710731e-06,1.89139323127547
1.3125,0.281810745814272,8.55009006163017e-05,1.87027779583536
1.375,0.556599510078629,0.000152231988714148,1.80280266296484
1.4375,0.817689354321852,0.000200152840777098,1.69040865912421
1.5,1.0586510168853,0.000222847541199619,1.53572909782764
1.5625,1.27354978407322,0.000216507306579609,1.34254261116099
1.625,1.45709187677991,0.000180392313914201,1.1156815131276
1.6875,1.60475519519096,0.000116995076078264,0.860898229673278
1.75,1.71290113373173,3.18544278065333e-05,0.584695770590013
1.8125,1.77886463276883,-6.69908791782064e-05,0.294131033089934
1.875,1.80102017134288,-0.000169863337047739,-0.00339843073023077
1.9375,1.77882201274455,-0.000266516833292449,-0.300372879944932
2,1.71281767447864,-0.000347265312816539,-0.589363312294381
2.0625,1.60463428552306,-0.000404006904123631,-0.863229671863528
2.125,1.45693819440653,-0.000431006285625587,-1.1152975238701
2.1875,1.2733688787147,-0.000425354247730302,-1.33950915095328
2.25,1.05844885843733,-0.000387090983047492,-1.53054777886888
2.3125,0.817471912710719,-0.000319037331747895,-1.68393599374747
2.375,0.556372426057545,-0.00022641128028067,-1.79611106729853
2.4375,0.281579134373105,-0.00011631180936412,-1.86448068619635
2.5,-0.000143104868621393,2.86486273239166e-06,-1.88746246060183
2.5625,-0.281859632993769,0.00012203858467631,-1.86450968319156
2.625,-0.556636349125202,0.000232074672886401,-1.79612436444542
2.6875,-0.817709981386156,0.000324428922240309,-1.68385690203969
2.75,-1.0586541591901,0.000391804453459789,-1.53029019842835
2.8125,-1.27353727782437,0.000428797566706285,-1.33900493885481
2.875,-1.45706833358119,0.000432480554231089,-1.1145223219232
2.9375,-1.60472717749137,0.000402840338254004,-0.862220922286078
3,-1.71287598621045,0.00034297603508181,-0.588225554169118
3.0625,-1.77884917685419,0.000258968322740384,-0.29926786089261
3.125,-1.80101949386356,0.000159374565575885,-0.00252063863529695
3.1875,-1.77883856296438,5.43705723191367e-05,0.294589696291074
3.25,-1.7128508294112,-4.53646769334229e-05,0.584585897712592
3.3125,-1.60468046089045,-0.000129864727868682,0.860149660539117
3.375,-1.4569914822406,-0.000191010325140525,1.11432915691134
3.4375,-1.27342209923396,-0.000223419751565825,1.34073504561606
3.5,-1.05849483993001,-0.00022498437047423,1.53371645110492
3.5625,-0.817504771931154,-0.000197007105491515,1.6885099466149
3.625,-0.556388620695609,-0.000143964134149687,1.80135665183707
3.6875,-0.281578098999327,-7.29529020351454e-05,1.869584893878
3.75,0.000158854139927589,7.0907500323289e-06,1.89165818431485
3.8125,0.281884945053784,8.63215208251602e-05,1.86719026110642
3.875,0.556664356701118,0.000154980769355257,1.79693041974336
3.9375,0.817733328177635,0.000204385941323379,1.68272319092827
4,1.05866631558824,0.000227838640777999,1.5274465934478
4.0625,1.2735337092732,0.000221370851966993,1.33493278302809
4.125,1.45704731201315,0.000184243899020743,1.10987409659995
4.1875,1.60469009049459,0.000119119992764438,0.857716476042667
4.25,1.71282708899165,3.18505632154456e-05,0.584541282546821
4.3125,1.77879483218413,-6.91272134696667e-05,0.296935797433297
4.375,1.80096703685279,-0.000173729715878846,0.00185240797876524
4.4375,1.77879499419391,-0.000271379672388896,-0.293543320964139
4.5,1.71282156979843,-0.000352203134255829,-0.582034795509367
4.5625,1.60466838965781,-0.000408091592427583,-0.856524778581722
4.625,1.45699642800922,-0.000433483417221786,-1.11021071174424
4.6875,1.27344087311022,-0.000425784693107538,-1.33676033306456
4.75,1.05852180314616,-0.000385426118936117,-1.53048181223458
4.8125,0.8175328362427,-0.00031561606208709,-1.68648188156993
4.875,0.556410503841141,-0.000221884099170222,-1.80080523842582
4.9375,0.281587613187146,-0.000111511155469001,-1.87054889990112
5,-0.000165708031452229,7.08036929950264e-06,-1.89394618955627
5.0625,-0.281909270365281,0.000124936497254187,-1.87041653268405
5.125,-0.556704165591109,0.000233171739967163,-1.800579070318
5.1875,-0.81778389257962,0.000323566213757834,-1.68623007028664
5.25,-1.05872100304559,0.000389165201484577,-1.53028600238826
5.3125,-1.27358515661549,0.000424867684320479,-1.33669575935309
5.375,-1.4570887298377,0.00042796022389838,-1.1103266965681
5.4375,-1.60471646763028,0.000398521886276421,-0.856829847203929
5.5,-1.7128360829912,0.000339608044143805,-0.582489834513524
5.5625,-1.77878718678342,0.000257128065624957,-0.294064709817273
5.625,-1.80094645086524,0.000159369823888979,0.00137968874563349
5.6875,-1.77876746385834,5.61874299585987e-05,0.296637080030098
5.75,-1.71279432082472,-4.20590603561212e-05,0.584526846597054
5.8125,-1.6046485891199,-0.000125664826952872,0.858056669057355
5.875,-1.45698990629302,-0.000186670352914705,1.1105799115675
5.9375,-1.27345108483067,-0.000219724530102315,1.33594613653833
6,-1.05854921330996,-0.000222614475430665,1.52864297978467
6.0625,-0.817574841555092,-0.000196420237528054,1.68392723080784
6.125,-0.556461902778301,-0.000145311881349669,1.79794244530444
6.1875,-0.281641539796857,-7.6046841842652e-05,1.86781990501251
6.25,0.000116554754591379,2.75656670398989e-06,1.89175937556944
6.3125,0.281871322249384,8.1492715965826e-05,1.86908602008277
6.375,0.556681839586195,0.000150519100146167,1.80028009057452
6.4375,0.81777880770098,0.000201118216342668,1.68697667551794
6.5,1.05873169842658,0.000226403111475642,1.53193380603683
6.5625,1.27360735915232,0.000222089639634639,1.33896853828562
6.625,1.45711612185941,0.000187048449480781,1.11286211421497
6.6875,1.6047418164199,0.000123548839337943,0.859236810740636
6.75,1.71285253042778,3.71252602611766e-05,0.584408466838291
6.8125,1.77878946985985,-6.3958912452218e-05,0.295219794108608
6.875,1.80093183689417,-0.000169610526876133,-0.00113967173797702
6.9375,1.77873623521722,-0.000269057323578645,-0.297320786691342
7,1.71274972396013,-0.000352082875879331,-0.58600307378966
7.0625,1.60459625717135,-0.000410158770057456,-0.86007840317394
7.125,1.45693685757696,-0.00043731206656765,-1.11282515371605
7.1875,1.27340447435793,-0.000430628314868315,-1.33806882782941
7.25,1.05851505839533,-0.000390368786944417,-1.53032602578958
7.3125,0.817556947644428,-0.000319750345454716,-1.68492954848613
7.375,0.556461180794566,-0.000224479189474189,-1.79813310280933
7.4375,0.281655837480403,-0.000112139696482854,-1.86719458451462
7.5,-9.20759417318295e-05,8.47735008673788e-06,-1.89043720463344
7.5625,-0.281843330111172,0.000128053743599065,-1.86728784292974
7.625,-0.556657645444791,0.000237407352083253,-1.79829202313404
7.6875,-0.817765062649568,0.000328136915132345,-1.68510489615958
7.75,-1.05873320427684,0.000393247285537198,-1.53045767875495
7.8125,-1.27362620709455,0.000427739387926719,-1.33809920294246
7.875,-1.45715131380026,0.000429122616946534,-1.11271263691408
7.9375,-1.60478943778325,0.000397779667759104,-0.859808056488817
8,-1.71290644435729,0.000337098232925743,-0.585592355001222
8.0625,-1.77884240911115,0.000253292762992671,-0.296818920073344
8.125,-1.80097669824866,0.00015487809721732,-0.000620492045187437
8.1875,-1.77876734495396,5.18196749727182e-05,0.295670450316899
8.25,-1.71276384831751,-4.55446641433144e-05,0.584708657745006
8.3125,-1.60459317772268,-0.000127661273944233,0.859324784828223
8.375,-1.45691940956618,-0.000186824828476543,1.11270990271687
8.4375,-1.27337804208209,-0.000217998934863151,1.33859009580594
8.5,-1.05848661837645,-0.00021929415495284,1.53138582612502
8.5625,-0.817533830379933,-0.000192069769058261,1.68635146602804
8.625,-0.556449771233222,-0.000140684522393642,1.799691321628
8.6875,-0.281660444543868,-7.19608155397586e-05,1.86864950529611
8.75,6.9981002924886e-05,5.55675667732636e-06,1.8915720701382
8.8125,0.281805372361009,8.24685726862431e-05,1.86794080606068
8.875,0.556608256768025,0.000149441811863883,1.79837894886657
8.9375,0.817710695741313,0.000198123719838329,1.6846297310491
9,1.05868118927518,0.000221984444890837,1.5295091961514
9.0625,1.27358345303744,0.000217022217945922,1.33683502698803
9.125,1.45712308456784,0.000182256511558802,1.11133334363757
9.1875,1.60477841926488,0.000119934596197793,0.858525565453799
9.25,1.71291226841534,3.53929466567551e-05,0.584597560637119
9.3125,1.77886171934427,-6.34473065621886e-05,0.296253477348811
9.375,1.80100374664253,-0.000166915035952806,0.00055689499000483
9.4375,1.77879501413036,-0.000264655178387488,-0.29523773690032
9.5,1.71278491803473,-0.000346777728839769,-0.583860006758297
9.5625,1.60460161023851,-0.000404922611059528,-0.858201001842911
9.625,1.45691142455655,-0.000433094058339742,-1.11148912282564
9.6875,1.27335278896964,-0.000428171690030293,-1.3374597363409
9.75,1.05844632569395,-0.000390073646842455,-1.53051398310743
9.8125,0.817483405363966,-0.000321608249914559,-1.68586209384631
9.875,0.556395921366213,-0.000228088651386326,-1.79964683273123
9.9375,0.281610478431516,-0.000116794662286658,-1.86904319557407
10,-0.000109458700704704,3.64740238214188e-06,-1.89233121814649
10.0625,-0.281829638548361,0.000123921089935134,-1.86893965556404
10.125,-0.55661530992825,0.00023469103453352,-1.79945931441677
10.1875,-0.817701609037935,0.000327281765807641,-1.68562588250188
10.25,-1.05865991477761,0.000394355421570395,-1.53027313230507
10.3125,-1.27355611318624,0.000430562843915682,-1.33725830712334
10.375,-1.45709687821118,0.000433115622555076,-1.11136228156268
10.4375,-1.60476033774494,0.000402199833381019,-0.85816769019213
10.5,-1.71290785030722,0.000341138591360945,-0.583918630984784
10.5625,-1.77887406492181,0.000256222091830369,-0.295365786582252
10.625,-1.80103296656039,0.00015616592495032,0.000399103940945333
10.6875,-1.77883820960472,5.12252242038215e-05,0.296115507203841
10.75,-1.71283669568267,-4.79339011413456e-05,0.58452925674893
10.8125,-1.60465504025124,-0.00013144672451586,0.858566884913833
10.875,-1.45695927255746,-0.000191365629235083,1.11150550129892
10.9375,-1.27338880342449,-0.000222519890358571,1.33713468386854
11,-1.0584663526008,-0.000223014884361692,1.52990692833427
11.0625,-0.81748613202917,-0.000194334732296293,1.68507328928003
11.125,-0.556383116253806,-0.000141074195358702,1.79880097197251
11.1875,-0.281586683067971,-7.03670916526837e-05,1.86826983135668
11.25,0.000137732550531628,8.90337913365907e-06,1.89174503705865
11.3125,0.281855064932833,8.70265263932242e-05,1.86862359475013
11.375,0.556631052932713,0.000154439900009343,1.79945298596541
11.4375,0.817702542843302,0.000202687179028744,1.68592089468635
11.5,1.05864354137026,0.000225287617573353,1.53081580659642
11.5625,1.27352301288521,0.000218442429357165,1.33795915715384
11.625,1.45705061138177,0.000181499856110673,1.11211061745125
11.6875,1.60470681428245,0.000117106037611464,0.858848986468918
11.75,1.71285427900646,3.09915563359692e-05,0.584431949984425
11.8125,1.77882767037606,-6.86126768240625e-05,0.295638622530075
11.875,1.80099970301201,-0.000171876661494824,-0.000400725610261499
11.9375,1.77882170160065,-0.00026847457442047,-0.296383058344493
12,1.71283759444459,-0.000348731356496517,-0.585014278066846
12.0625,1.60467090988525,-0.000404644900337495,-0.859189514488088
12.125,1.45698502526181,-0.000430646962657398,-1.11216749140924
12.1875,1.27341760491649,-0.000424027045951877,-1.33773480350798
12.25,1.05849083564536,-0.000385014413246933,-1.53035635171483
12.3125,0.817499701948289,-0.000316571936709848,-1.68530864518293
12.375,0.556381116942639,-0.000223986888732105,-1.79879315247159
12.4375,0.281567217689616,-0.000114345188471163,-1.86802735669276
12.5,-0.000173470255715923,4.0454006667139e-06,-1.89131163244845
12.5625,-0.281903006029978,0.000122248074109893,-1.86807052001483
12.625,-0.556684976264906,0.000231297590312529,-1.79886743550967
12.6875,-0.817755177296926,0.00032281423948035,-1.68539233945791
12.75,-1.05868785265135,0.000389632971532877,-1.53042240418488
12.8125,-1.27355344774487,0.000426429062119714,-1.33775628172587
12.875,-1.45706407971924,0.00043029071268943,-1.11212317894447
12.9375,-1.6047032355275,0.000401158117059221,-0.859068585441775
13,-1.712836595714,0.000342031218816077,-0.584819152160328
13.0625,-1.77880132581369,0.000258856942296298,-0.296129854798332
13.125,-1.80097167434378,0.000160046871466439,-0.000117160649543924
13.1875,-1.7787992593933,5.5642745197954e-05,0.295917587292242
13.25,-1.71282700852777,-4.37774924318792e-05,0.58466998420552
13.3125,-1.60467633204939,-0.00012829963456792,0.859014772073567
13.375,-1.45700774863448,-0.000189799899874762,1.11218359172626
13.4375,-1.27345583322229,-0.000222835992213511,1.33793355454523
13.5,-1.05854000460352,-0.000225191736952328,1.53070220589119
13.5625,-0.817553296045536,-0.000198031681591102,1.68574489692914
13.625,-0.556431835639078,-0.000145683893698444,1.79925114624661
13.6875,-0.281608282030761,-7.51115270113427e-05,1.86843722303979
13.75,0.000147105066897387,4.84702453880598e-06,1.89161288351068
13.8125,0.281893749608243,8.43879336138397e-05,1.86822090752574
13.875,0.556692174846353,0.000153726386647508,1.7988487850489
13.9375,0.817775234406242,0.000204084984413606,1.68521257053536
14,1.05871487594025,0.000228613412322003,1.53011354597785
14.0625,1.27358030502262,0.000223158694321129,1.33736890518018
14.125,1.4570836743455,0.000186797569156133,1.11171819482052
14.1875,1.60470977289105,0.000122044904134667,0.858707727294518
14.25,1.71282661510051,3.46744342689326e-05,0.584555622173094
14.3125,1.77877431474509,-6.68648331130341e-05,0.296000541179355
14.375,1.80093015745735,-0.000172386490719103,0.00013755529246301
14.4375,1.7787483475265,-0.000271138274046336,-0.295755084313534
14.5,1.71277348921008,-0.00035303452044158,-0.584394219278923
14.5625,1.60462746329404,-0.000409762517522676,-0.858670837552582
14.625,1.45696996978487,-0.000435606487224448,-1.11182552119022
14.6875,1.2734336207931,-0.00042789933484025,-1.33761588726108
14.75,1.05853507528344,-0.000387092104526157,-1.530471729403
14.8125,0.817564297889155,-0.000316499324235019,-1.68563381028706
14.875,0.556454582620224,-0.000221817565163994,-1.79927263420507
14.9375,0.281636491457811,-0.000110519938833099,-1.86858403731841
15,-0.000120701614720515,8.79187830608269e-06,-1.89185905478609
15.0625,-0.281876117605266,0.000127030368271169,-1.8685262349615
15.125,-0.556688738420971,0.000235244081667902,-1.79916534107444
15.1875,-0.817788908319646,0.000325222718401122,-1.68549217703244
15.25,-1.05874554104282,0.000390090763215596,-1.53031506272721
15.3125,-1.27362482218443,0.000424878573231186,-1.33746423477018
15.375,-1.45713643628334,0.000427031266974331,-1.11169613526065
15.4375,-1.60476369720786,0.000396785801146966,-0.858575155056186
15.5,-1.71287440247929,0.000337328704206342,-0.584335907429134
15.5625,-1.77880974805894,0.000254653415810686,-0.295729518258926
15.625,-1.80094920952591,0.000157072951874419,0.000142268911039967
15.6875,-1.77874989907445,5.44056241813414e-05,0.296001155557773
15.75,-1.71275952830845,-4.30776871763179e-05,0.584570368423894
15.8125,-1.60460273060813,-0.000125799277706649,0.858752553961372
15.875,-1.456941113418,-0.000185944142962509,1.11180330511302
15.9375,-1.27340801233815,-0.000218300664013351,1.33749623253788
16,-1.0585194990026,-0.000220769230462102,1.53027565947616
16.0625,-0.817563746978944,-0.000194499577855779,1.68539326259106
16.125,-0.556471376561955,-0.000143676324677055,1.79902530426233
16.1875,-0.281669870397146,-7.50120885357323e-05,1.8683675082016
16.25,7.44349913485926e-05,2.97489523899827e-06,1.89170512069712
16.3125,0.281822935691052,8.08214543402898e-05,1.86845627092613
16.375,0.556635824883588,0.000149048831400041,1.79918738695347
16.4375,0.817743382448701,0.000199097338283989,1.68560012481475
16.5,1.05871319651402,0.000224202361965241,1.53049000647475
16.5625,1.27360910318202,0.000220140157153532,1.33767771395775
16.625,1.45713783142622,0.000185762533764255,1.11191472423292
16.6875,1.60477965768248,0.000123237882826149,0.858765664396846
16.75,1.71289979823445,3.79320995713864e-05,0.584470392707977
16.8125,1.77883778104643,-6.20971421019088e-05,0.29578934500383
16.875,1.80097262232777,-0.00016695850203114,-0.000163889879490564
16.9375,1.77876226494961,-0.000266035062785934,-0.296098499445306
17,1.71275639396423,-0.00034918532479658,-0.584726439178945
17.0625,1.60458240861368,-0.000407858565355243,-0.858941992913943
17.125,1.45690498284729,-0.000435966875978047,-1.11199647569889
17.1875,1.27336027328443,-0.000430412960281216,-1.33766382830652
17.25,1.05846642375204,-0.000391246155388117,-1.5303931231926
17.3125,0.817512560603686,-0.000321485795379048,-1.68544435427732
17.375,0.556428966321909,-0.000226693395757034,-1.79900430462021
17.4375,0.281641554499009,-0.000114387089621948,-1.86827976558532
17.5,-8.58588580966421e-05,6.6216289295479e-06,-1.89156590894431
17.5625,-0.281817691406187,0.000126915677379345,-1.86828818161915
17.625,-0.556617118494562,0.000237158740020181,-1.79901669442641
17.6875,-0.817716829187198,0.000328771455858148,-1.68545270424581
17.75,-1.05868581683992,0.00039459014301267,-1.53038743543784
17.8125,-1.27358806772564,0.000429486257778494,-1.3376341410664
17.875,-1.45712917954626,0.000430899569547467,-1.11193495497385
17.9375,-1.60478721876424,0.000399212217340691,-0.858844716723099
18,-1.71292450815682,0.000337877382660664,-0.584594545218388
18.0625,-1.77887751522,0.000253227107178401,-0.295938474275834
18.125,-1.80102257426529,0.000153924067996197,1.30749315708223e-05
18.1875,-1.77881580211923,5.00861250164423e-05,0.295968842052361
18.25,-1.71280623802888,-4.78169060726167e-05,0.584636895950408
18.3125,-1.60462192999817,-0.000130140274494777,0.858904886192621
18.375,-1.45692937981185,-0.000189141462793247,1.11201583144091
18.4375,-1.27336742656847,-0.000219805199209106,1.33773501793716
18.5,-1.05845727550643,-0.000220317413754115,1.5305038242247
18.5625,-0.817490950503289,-0.000192155646381898,1.68557664472803
18.625,-0.556400953642383,-0.000139822815320127,1.79913754048617
18.6875,-0.281614345760951,-7.02906639540922e-05,1.86839378287521
18.75,0.000105187231355784,7.76415330086242e-06,1.89164405654994
18.8125,0.281823449391285,8.48489337055443e-05,1.86831973176999
18.875,0.556606014920884,0.000151594654268769,1.79899828521649
18.9375,0.817688560145481,0.000199679891361749,1.68538862543284
19,1.05864312455208,0.000222673805062668,1.53028874922863
19.0625,1.27353625813034,0.000216728879640625,1.3375168059228
19.125,1.45707518313106,0.000181049245938527,1.11181726607523
19.1875,1.60473836084661,0.000118063229399561,0.858744470530158
19.25,1.71288720718384,3.32478208059928e-05,0.584526364983227
19.3125,1.77885614113127,-6.54075414116656e-05,0.295911695834705
19.375,1.8010186708784,-0.000168253912338579,4.34552735445459e-06
19.4375,1.77882781269208,-0.000265048184842656,-0.295911189672071
19.5,1.71282978318433,-0.000346081251322173,-0.584548939012605
19.5625,1.6046505882741,-0.000403206039242441,-0.858800832215584
19.625,1.45695583111831,-0.000430627470749849,-1.11191189172464
19.6875,1.2733847540696,-0.000425371939183119,-1.33764689707192
19.75,1.05846019353927,-0.00038742116628973,-1.53044436196256
19.8125,0.817476739984721,-0.000319553021868392,-1.68555396200608
19.875,0.556369939285045,-0.00022696520237016,-1.7991539545805
19.9375,0.28156983159613,-0.000116762806418922,-1.86844563242338
20,-0.000157510923198255,2.625818695776e-06,-1.89172243541999
20.0625,-0.28187652089941,0.000122067126527681,-1.86841199342514
20.125,-0.556652656533643,0.000232360526462847,-1.79909006695228
20.1875,-0.817722751172707,0.000324895125785211,-1.68546607085824
20.25,-1.0586610665995,0.000392319508776268,-1.53034058711234
20.3125,-1.27353704466127,0.000429199334909333,-1.33753597555712
20.375,-1.4570609556464,0.00043260809925934,-1.11180185720467
20.4375,-1.60471392477625,0.000402567707738046,-0.858697856489893
20.5,-1.71285917589019,0.000342240853352805,-0.584456533292999
20.5625,-1.77883175963589,0.000257788595970091,-0.295829901656219
20.625,-1.80100452751965,0.0001578493844395,7.6688053830376e-05
20.6875,-1.77882866697765,5.26639971589968e-05,0.295979238855788
20.75,-1.71284771799122,-4.70532878564705e-05,0.584594111615438
20.8125,-1.60468463760345,-0.000131337465649296,0.858816992272874
20.875,-1.45700215063485,-0.000192106523779825,1.11189747337522
20.9375,-1.27343730530016,-0.000224043302481949,1.3376050031682
21,-1.05851182089348,-0.000225117326381969,1.53038215410703
21.0625,-0.81752044910486,-0.000196707672068595,1.68548145560052
21.125,-0.556400148482296,-0.000143350572557256,1.79908241896561
21.1875,-0.281583372173963,-7.21775665880335e-05,1.8683858498268
21.25,0.000160825250504388,7.87152832822064e-06,1.89168308610744
21.3125,0.281893858299087,8.69758333036249e-05,1.86839840730089
21.375,0.556678672089585,0.000155422902063845,1.79910351921787
21.4375,0.817750542439626,0.000204588310891104,1.68550371174863
21.5,1.0586834083667,0.00022783268495988,1.53039599717958
21.5625,1.27354768143743,0.000221237586953129,1.33760024368602
21.625,1.45705572019916,0.00018409642358762,1.11186500264664
21.6875,1.60469148265553,0.000119081278682223,0.858750369605106
21.75,1.71282126337,3.2030358474695e-05,0.58449079855409
21.8125,1.77878287355805,-6.86526316679699e-05,0.295841291404895
21.875,1.80095112356731,-0.000172931827105023,-8.92044569777983e-05
21.9375,1.77877801030679,-0.000270283991235377,-0.296013047910687
22,1.71280659138524,-0.000350886763496141,-0.584643460733948
22.0625,1.60465813674821,-0.000406672689966325,-0.858873953988143
22.125,1.45699277977166,-0.000432104357569052,-1.11195320911399
22.1875,1.27344453266529,-0.000424591471044572,-1.33765112653921
22.25,1.05853217176635,-0.000384546903920218,-1.53041198466626
22.3125,0.817548119423993,-0.00031514183983342,-1.68549097692471
22.375,0.556428030442959,-0.000221854126334104,-1.79907080517964
22.4375,0.281604310881782,-0.000111905539149199,-1.86835549405467
22.5,-0.000152765621932371,6.3393231808013e-06,-1.89163914159745
22.5625,-0.281902342271952,0.000123973531348559,-1.86834792529626
22.625,-0.556704440729307,0.000232139238413553,-1.79905432604165
22.6875,-0.817791277412085,0.000322618546816759,-1.68546320267616
22.75,-1.0587341375954,0.000388430866731428,-1.53037003188024
22.8125,-1.27360165608671,0.000424424465467604,-1.33759230708461
22.875,-1.45710560890596,0.000427818813269724,-1.11187574999523
22.9375,-1.60473067189682,0.000398622336207843,-0.858777612907195
23,-1.71284503296373,0.000339830999535274,-0.584529923061451
23.0625,-1.77878923747437,0.000257319408348518,-0.295886026258045
23.125,-1.8009411850987,0.00015937396591156,4.57885986345774e-05
23.1875,-1.77875576698429,5.5882040313216e-05,0.295977471862961
23.25,-1.71277822347665,-4.27347906587815e-05,0.584620863743408
23.3125,-1.60463090597813,-0.000126694884010688,0.858867358853754
23.375,-1.45697373516062,-0.000187962960632547,1.1119631293307
23.4375,-1.27343925521336,-0.000221129060781358,1.33767556449736
23.5,-1.05854378268237,-0.000223950092787394,1.53044680936158
23.5625,-0.817576728997841,-0.000197509777224103,1.68553061263401
23.625,-0.556470725204827,-0.000146013797197467,1.79910911763549
23.6875,-0.281655679920863,-7.62790216855818e-05,1.8683867342386
23.75,9.9660804788808e-05,3.00513556006342e-06,1.89165880279439
23.8125,0.281854728844244,8.2163724930203e-05,1.86835338652547
23.875,0.556668548178887,0.000151498795329874,1.79904519109824
23.9375,0.817771232755738,0.000202259963545893,1.68544129275798
24,1.05873123770374,0.000227554031682336,1.53033904338998
24.0625,1.27361414480655,0.000223116413944792,1.33755719643902
24.125,1.45712899665681,0.000187857951918418,1.11184194665011
24.1875,1.60475853934723,0.000124100468575057,0.858750184701406
24.25,1.71287017516829,3.74334596123494e-05,0.584512821432789
24.3125,1.77880494529596,-6.38317114350416e-05,0.29588152295729
24.375,1.8009424370724,-0.000169568716439686,-3.73939777656429e-05
24.4375,1.77874012094251,-0.000268991710548249,-0.295957837537259
24.5,1.71274625031804,-0.000351891539917585,-0.584593296018887
24.5625,1.60458608865835,-0.000409765816904471,-0.858836262755329
24.625,1.45692185028522,-0.000436681591598998,-1.11193330982902
24.6875,1.27338734609777,-0.000429771872131026,-1.33765148842669
24.75,1.05849890537494,-0.000389345653008482,-1.53043194073433
24.8125,0.81754469364823,-0.00031866070116814,-1.68552691956237
24.875,0.556455056842899,-0.000223451002211292,-1.79911682017634
24.9375,0.281656984567596,-0.000111310676042032,-1.86840432398136
25,-8.38102963864162e-05,8.98071362442644e-06,-1.89168332302151
25.0625,-0.281829365221696,0.000128137362156249,-1.86838092274049
25.125,-0.556640415374771,0.000237027647429842,-1.79907149144688
25.1875,-0.817747583454103,0.000327312329261117,-1.68546242067205
25.25,-1.05871853751107,0.000392060114407222,-1.53035196286644
25.3125,-1.27361691502601,0.000426326169831846,-1.3375602035547
25.375,-1.45714900328121,0.000427653434622722,-1.11183488675862
25.4375,-1.60479447399889,0.000396429299765085,-0.858734428971382
25.5,-1.71291788545638,0.000336014457652229,-0.584491013547716
25.5625,-1.77885817341996,0.000252568503167324,-0.295857141195982
25.625,-1.80099393436456,0.000154533876855388,6.05875317228888e-05
25.6875,-1.77878293888828,5.1800867784084e-05,0.295976374023992
25.75,-1.71277497744818,-4.53546764878753e-05,0.584604515091876
25.8125,-1.60459781297677,-0.000127414735126485,0.858838690140721
25.875,-1.45691667646686,-0.000186675914102336,1.11192684427117
25.9375,-1.273368376419,-0.000218070259432435,1.33763737553081
26,-1.05847168881349,-0.000219650728738642,1.53041254409416
26.0625,-0.817516241785659,-0.000192705658231564,1.68550532987144
26.125,-0.556432601522744,-0.000141524411293868,1.79909636627121
26.1875,-0.281646697418842,-7.28754049629935e-05,1.86838806265104
26.25,7.79100952349137e-05,4.72529417515255e-06,1.89167358530799
26.3125,0.281806122102398,8.18765222378676e-05,1.86837898357773
26.375,0.556601741979765,0.000149215108297974,1.79907740883654
26.4375,0.817698122528012,0.000198335590219976,1.68547506358766
26.5,1.0586648406274,0.000222643156162384,1.53036921798559
26.5625,1.27356628301314,0.00021807057061579,1.33757932419628
26.625,1.45710819318963,0.000183582595149858,1.11185292701907
26.6875,1.60476850146826,0.000121391417327336,0.858748694895428
26.75,1.71290913499674,3.68231345236713e-05,0.584499462646503
26.8125,1.77886597506652,-6.21862086967925e-05,0.295858671497772
26.875,1.80101468272807,-0.000165929056658256,-6.5999251662674e-05
26.9375,1.77881073426858,-0.000263999620958509,-0.295987701183754
27,1.71280267551934,-0.000346452017446855,-0.584619868010733
27.0625,1.60461829631166,-0.000404874463479282,-0.858855627553982
27.125,1.45692412114382,-0.000433231607755348,-1.11194275882641
27.1875,1.27335928752934,-0.000428381113717708,-1.33764989278901
27.25,1.05844551991591,-0.000390239395534112,-1.53041987433931
27.3125,0.817475487873985,-0.000321632996038437,-1.68550652098956
27.375,0.556382349437999,-0.000227910364638022,-1.79909142246368
27.4375,0.281593714784676,-0.000116398591563453,-1.8683779150791
27.5,-0.000126383934627495,4.22365582226698e-06,-1.89165992355403
27.5625,-0.281843666793843,0.000124590681229415,-1.86836397757091
27.625,-0.556623898203369,0.000235329598400815,-1.79906336654743
27.6875,-0.817703182280076,0.00032774694918514,-1.68546407814002
27.75,-1.05865414597691,0.000394511862455916,-1.53036285782093
27.8125,-1.27354398147282,0.000430308652304585,-1.33757841181267
27.875,-1.45708049454932,0.000432405293067563,-1.11185743705745
27.9375,-1.60474256924612,0.000401058364942906,-0.858757783392871
28,-1.71289181002093,0.000339662758205956,-0.584511619102999
28.0625,-1.77886255791198,0.00025456728348052,-0.295871967099288
28.125,-1.80102799085546,0.00015452026155144,5.36076426870258e-05
28.1875,-1.77884060083295,4.97758834945797e-05,0.295978058874624
28.25,-1.71284597861307,-4.90350209002011e-05,0.584614349573087
28.3125,-1.60466951361549,-0.000132110461084592,0.8588549432296
28.375,-1.45697631199854,-0.000191580115774334,1.11194686712074
28.4375,-1.27340532860179,-0.000222349241661806,1.33765802927971
28.5,-1.05847937529136,-0.000222582708788603,1.53043068886246
28.5625,-0.817493287689451,-0.000193796482412152,1.68551829922485
28.625,-0.556383084493322,-0.000140584534860147,1.79910235590198
28.6875,-0.281579422288033,-7.00490871919192e-05,1.86838637712488
28.75,0.000150978018390778,8.98128631309444e-06,1.89166470985493
28.8125,0.281871986385359,8.6861775992278e-05,1.86836447532945
28.875,0.556648688088325,0.000154093833171838,1.79905962936078
28.9375,0.817717802782035,0.000202270914628703,1.68545679789391
29,1.05865375990725,0.00022493900194692,1.53035324097468
29.0625,1.27352642069861,0.000218298675444063,1.33756798164067
29.125,1.45704665060718,0.000181671005149576,1.11184779395316
29.1875,1.60469623765374,0.000117653992178425,0.85875036071555
29.25,1.71283901592682,3.19182438544468e-05,0.584507471596339
29.3125,1.77881048373902,-6.73662368089471e-05,0.2958716228774
29.375,1.80098369779703,-0.000170420673834012,-5.02110804859179e-05
29.4375,1.77880977262798,-0.000266952386118791,-0.295971547451737
29.5,1.7128319115004,-0.000347296581872764,-0.584605801109246
29.5625,1.60467253179093,-0.000403437918790881,-0.858845710964454
29.625,1.45699371153708,-0.000429774631618047,-1.1119383669071
29.6875,1.2734318585472,-0.000423548478182089,-1.33765152369956
29.75,1.05850816936189,-0.000384934380870053,-1.53042710099167
29.8125,0.817517080660003,-0.000316842252168601,-1.68551808330951
29.875,0.556395497632342,-0.000224515180856359,-1.79910544279225
29.9375,0.281576090726091,-0.000115009835393958,-1.86839220047492
30,-0.000171634689581215,3.37594306303722e-06,-1.89167230670628
30.0625,-0.281908485823413,0.000121693842459774,-1.86837264363829
30.125,-0.556696748000998,0.000230946441742753,-1.79906711694062
30.1875,-0.817771098402162,0.000322705242513909,-1.68546249325877
30.25,-1.05870504266476,0.000389747209995884,-1.53035633716608
30.3125,-1.27356880085967,0.00042669054651383,-1.3375680890747
30.375,-1.45707481738145,0.000430578578178283,-1.1118449867543
30.4375,-1.60470740074394,0.000401329033182779,-0.858745151530048
30.5,-1.71283340109935,0.000341948402933508,-0.584500720846298
30.5625,-1.77879129344919,0.000258420074835713,-0.295864398151471
30.625,-1.80095654259064,0.000159216307094983,5.68027331560583e-05
30.6875,-1.77878167329637,5.44521817893717e-05,0.295976528144523
30.75,-1.71281004896661,-4.52233159637439e-05,0.584608466129496
30.8125,-1.60466296748095,-0.000129842181980163,0.85884572713183
30.875,-1.45700030701849,-0.000191255452289124,1.11193581177671
30.9375,-1.27345558808697,-0.000224029435291833,1.33764686146086
31,-1.05854694885377,-0.000225988286797661,1.53042110060954
31.0625,-0.817566143674979,-0.000198360042356029,1.68551169302505
31.125,-0.556448250944116,-0.000145546498502274,1.79909964127622
31.1875,-0.281625295459532,-7.45804500120839e-05,1.86838784784898
31.25,0.000132568468722056,5.64692514745323e-06,1.8916700179729
31.3125,0.2818843231794,8.5304700710888e-05,1.86837270299567
31.375,0.556689582006708,0.000154610140434788,1.79906944472053
31.4375,0.817779982323666,0.000204814978662805,1.68546666891391
31.5,1.05872616560071,0.000229118122996461,1.53036167314906
31.5625,1.27359617364897,0.00022342565527758,1.33757374290468
31.625,1.45710134479682,0.000186871703150753,1.11185009316739
31.6875,1.60472614787501,0.000122016238243834,0.858748954110963
31.75,1.71283882828437,3.46579748929593e-05,0.584502683234482
31.8125,1.77878024073383,-6.67529847457492e-05,0.295864278603322
31.875,1.8009287899214,-0.000172052217422279,-5.89236126056214e-05
31.9375,1.77873997821012,-0.000270527581248502,-0.295980269290791
32,1.71275965596913,-0.000352143831609632,-0.584613212721891
32.0625,1.60461067640107,-0.000408639931378315,-0.858850730668035
32.125,1.4569532651914,-0.000434344531898805,-1.1119403073652
32.1875,1.27342001983375,-0.000426621085812802,-1.33765018405935
32.25,1.05852704696169,-0.000385933238166155,-1.5304227826513
32.3125,0.817563319434089,-0.000315588790237177,-1.68551152921976
32.375,0.55646087652467,-0.000221259308376947,-1.79909771177206
32.4375,0.281648985809212,-0.000110377753294795,-1.86838449751081
32.5,-0.0001041824332024,8.50456585821639e-06,-1.89166579623739
32.5625,-0.281858465764034,0.000126354238590049,-1.86836827459419
32.625,-0.556673047931773,0.000234270030467538,-1.79906548565578
32.6875,-0.817777924362426,0.000324079915287079,-1.68546376387058
32.75,-1.05874117134394,0.00038892744460049,-1.53036022981242
32.8125,-1.27362779742532,0.00042383790509265,-1.33757393563564
32.875,-1.45714617999809,0.000426226174550476,-1.1118518436669
32.9375,-1.60477842833893,0.000396277708693727,-0.858751950881235
33,-1.71289145233977,0.000337115131344799,-0.584506435721996
33.0625,-1.77882603527565,0.000254668035788813,-0.295868196786584
33.125,-1.80096178841137,0.000157199150497733,5.54369958587486e-05
33.1875,-1.77875648380909,5.45013970732178e-05,0.295977728210866
33.25,-1.71275889963549,-4.3148588980114e-05,0.584611972661697
33.3125,-1.60459495267742,-0.000126136792769838,0.858850939675386
33.375,-1.45692752222803,-0.00018658878478339,1.11194188996282
33.4375,-1.27339097788805,-0.000219222961384521,1.33765285944853
33.5,-1.05850200353423,-0.000221873880839659,1.53042611341327
33.5625,-0.817548854394775,-0.000195643131764045,1.68551499221794
33.625,-0.556461687433288,-0.000144694352332476,1.79910077985112
33.6875,-0.281667059502122,-7.57500110931475e-05,1.86838671930336
33.75,6.99163755311022e-05,2.63352847716404e-06,1.89166686206457
33.8125,0.281811939843171,8.09345733338333e-05,1.86836805892044
33.875,0.556620355856961,0.00014960682243789,1.79906406039928
33.9375,0.817726239490774,0.000200026531484135,1.68546138145576
34,1.05869747612679,0.000225379800296594,1.53035727946298
34.0625,1.27359764838292,0.000221416432951301,1.33757088034342
34.125,1.45713272614655,0.000186988182279579,1.1118491479632
34.1875,1.60478185620906,0.000124288393895783,0.858750010613607
34.25,1.71290895558826,3.87270923891091e-05,0.584505520385256
34.3125,1.77885231446231,-6.15837406246438e-05,0.295868412734134
34.375,1.80098999290202,-0.000166698581001146,-5.41575518368531e-05
34.4375,1.77877942936238,-0.000265956033119282,-0.29597561154945
34.5,1.71277034592648,-0.000349186940483376,-0.584609364447209
34.5625,1.604590713719,-0.000407833317118486,-0.85884824903117
34.625,1.45690621167235,-0.000435820200722443,-1.11193952569846
34.6875,1.27335425567586,-0.000430080076788191,-1.33765116831878
34.75,1.05845427904626,-0.000390703370173029,-1.5304253296737
34.8125,0.817496498392134,-0.000320755229666062,-1.68551520574874
34.875,0.556411893204067,-0.000225840974630005,-1.79910192708807
34.9375,0.281626556793927,-0.00011351422927177,-1.86838859763729
35,-9.60643903721883e-05,7.39178111097619e-06,-1.89166916480236
35.0625,-0.281821241079787,0.000127456150152953,-1.86837042488244
35.125,-0.556613333390313,0.000237358883926165,-1.79906613019947
35.1875,-0.817706335976323,0.000328556676794934,-1.68546285174883
35.25,-1.05867043622094,0.000393937930113312,-1.53035794702145
35.3125,-1.27357049032126,0.000428435025689455,-1.3375706696213
35.375,-1.45711248694697,0.000429547453533972,-1.11184811849778
35.4375,-1.60477433498008,0.000397704542161087,-0.858748343781086
35.5,-1.71291767913375,0.000336383900266576,-0.58450348816189
35.5625,-1.778877909082,0.000251912721923076,-0.295866333750795
35.625,-1.80103007344351,0.000152918854381971,5.59676201030146e-05
35.6875,-1.77882902435657,4.94612318997206e-05,0.295976887584768
35.75,-1.71282278249136,-4.80617978433273e-05,0.584609930353164
35.8125,-1.60463880464828,-0.000130074785119355,0.858848041540264
35.875,-1.4569435339415,-0.000188887909612569,1.1119386003894
35.9375,-1.27337629369425,-0.000219511208040588,1.33764968749742
36,-1.05845923001661,-0.000220123811728578,1.53042353451723
36.0625,-0.817485596827868,-0.000192166576646683,1.68551337741415
36.125,-0.556389196541884,-0.00014008425116831,1.7991003430005
36.1875,-0.281598229282253,-7.07814322994796e-05,1.86838748970556
36.25,0.000122843438057271,7.12750726844831e-06,1.8916686858075
36.3125,0.281839551675552,8.41949394177026e-05,1.86837062785582
36.375,0.556617745930638,0.00015107118432405,1.79906696349908
36.4375,0.817693879957101,0.000199425152465552,1.68546417008903
36.5,1.05864113352327,0.000222789664816156,1.53035953629771
36.5625,1.2735273569565,0.000217261467185408,1.33757228135767
36.625,1.45706100164104,0.00018198022275938,1.11184950842085
36.6875,1.60472146818912,0.000119313015148954,0.85874930857228
36.75,1.71287065492709,3.4689761977443e-05,0.584503894898659
36.8125,1.77884292051752,-6.39251228635746e-05,0.295866137819139
36.875,1.80101118075553,-0.000166882241880911,-5.67184881644645e-05
36.9375,1.77882743276337,-0.000263914003568246,-0.295978063330327
37,1.7128366285031,-0.000345268473756759,-0.584611340721237
37.0625,1.60466348868293,-0.000402745860594771,-0.85884946661106
37.125,1.45697253932203,-0.000430497786693169,-1.11193982464597
37.1875,1.27340234535389,-0.000425505168166865,-1.33765053218677
37.25,1.05847558604098,-0.000387718337314239,-1.53042388348063
37.3125,0.817487242958523,-0.000319901465051168,-1.68551319269758
37.375,0.556373731816231,-0.000227257227659205,-1.79909966821047
37.4375,0.28156628657352,-0.000116913085882254,-1.86838644098257
37.5,-0.000167715233558009,2.66611300470504e-06,-1.89166743215683
37.5625,-0.281891521547605,0.000122301151612876,-1.86836936412058
37.625,-0.55666973738102,0.000232743090353923,-1.79906588026452
37.6875,-0.817738826204971,0.000325337641263864,-1.68546342513587
37.75,-1.05867322904867,0.000392702913503289,-1.53035923184797
37.8125,-1.27354308420842,0.000429394004814155,-1.33757245035612
37.875,-1.45705975165395,0.000432498129762171,-1.11185011164091
37.9375,-1.60470564556594,0.000402075361739651,-0.858750242654627
38,-1.71284524861181,0.000341346055205054,-0.584505009788165
38.0625,-1.77881461611563,0.000256538611411916,-0.295867260698518
38.125,-1.80098717135791,0.000156355487267028,5.57565569619389e-05
38.1875,-1.77881413898011,5.10847285370222e-05,0.295977402138279
38.25,-1.71283855509679,-4.85394260426901e-05,0.584611070774487
38.3125,-1.60468242160275,-0.000132564320490469,0.858849616993842
38.375,-1.45700722695919,-0.000192950661634547,1.11194036047081
38.4375,-1.27344872186446,-0.000224445867491678,1.33765136172912
38.5,-1.0585274978009,-0.000225092797532652,1.53042487363803
38.5625,-0.817537548945043,-0.000196337933173234,1.6855141902013
38.625,-0.556415581286845,-0.000142765926024589,1.79910052323268
38.6875,-0.281594345171896,-7.15289857942311e-05,1.86838702952102
38.75,0.000156310865463398,8.44303181820101e-06,1.89166767387257
38.8125,0.281896651922022,8.73665702089555e-05,1.86836923308817
38.875,0.556688322759324,0.000155585380634726,1.79906540723499
38.9375,0.817765379204026,0.000204538294486651,1.68546269122929
39,1.05870083763991,0.000227643502110313,1.53035835488015
39.0625,1.27356464845355,0.000221023231702882,1.33757156607205
39.125,1.4570692524914,0.000183987078659265,1.11184935282134
39.1875,1.60469921890167,0.000119196247084672,0.858749719291972
39.25,1.71282187353775,3.24537488952973e-05,0.584504793269793
39.3125,1.7787762956031,-6.78888372978885e-05,0.295867374249211
39.375,1.800938574555,-0.000171854356672919,-5.53399276027045e-05
39.4375,1.77876176994894,-0.000268973792079831,-0.295976754096169
39.5,1.71278959647416,-0.000349465002216955,-0.584610295582686
39.5625,1.60464345862526,-0.000405280567038203,-0.858848834896751
39.625,1.45698307779514,-0.000430880883865121,-1.11193968916419
39.6875,1.27344158093097,-0.000423653141043471,-1.33765089875139
39.75,1.05853654331321,-0.000383972199511026,-1.5304246822997
39.8125,0.817559084143069,-0.000314962170091565,-1.68551429106651
39.875,0.556443684880732,-0.000222051608702081,-1.79910089227547
39.9375,0.281621916860595,-0.000112417218213816,-1.86838760304578
40,-0.000136293810691974,5.61164338883866e-06,-1.89166835926659
40.0625,-0.281889888793678,0.00012314889699056,-1.86836992362283
40.125,-0.556698174963821,0.000231339945314049,-1.79906599856991
40.1875,-0.817792267885886,0.000321951177591636,-1.68546309708278
40.25,-1.05874216180297,0.000387968467650211,-1.53035851952484
40.3125,-1.27361524005349,0.000424192914233176,-1.33757147186
40.375,-1.45712228945447,0.000427790495748839,-1.11184902174466
40.4375,-1.60474743493631,0.000398719502108541,-0.858749208511571
40.5,-1.7128588497921,0.000339939500790335,-0.584504185459658
40.5625,-1.77879760363921,0.00025731119434206,-0.295866764362545
40.625,-1.80094256591954,0.000159134320198435,5.58593715011546e-05
40.6875,-1.77874987046722,5.53358669248033e-05,0.295977106940231
40.75,-1.71276605209076,-4.36036411501565e-05,0.58461043309412
40.8125,-1.60461457813115,-0.0001278359779542,0.858848742373614
40.875,-1.45695610819493,-0.000189265470781727,1.11193938721202
40.9375,-1.27342341704651,-0.000222440725965986,1.33765043918459
41,-1.0585325025579,-0.000225104975317588,1.53042413943314
41.0625,-0.817571965049212,-0.000198358945206259,1.68551374983676
41.125,-0.556473276391613,-0.0001464525738494,1.79910043506983
41.1875,-0.281665044190089,-7.62653738277845e-05,1.86838729726485
41.25,8.51969688204119e-05,3.44448097453838e-06,1.8916682474822
41.3125,0.281837785462005,8.29402607145926e-05,1.86837001775518
41.375,0.556652185678539,0.000152480537576812,1.79906627886528
41.4375,0.817758407638078,0.00020329718839985,1.68546351592791
41.5,1.05872427676463,0.000228507271891764,1.53035900940045
41.5625,1.27361433140383,0.000223881281842118,1.33757195612434
41.625,1.45713634258522,0.000188382133792557,1.11184942653899
41.6875,1.60477178288462,0.000124389895636708,0.858749473948822
41.75,1.71288700564076,3.75468874451242e-05,0.584504274410398
41.8125,1.77882241422457,-6.37981325972547e-05,0.295866667556413
41.875,1.80095748277244,-0.00016950332814986,-5.61226168277473e-05
41.9375,1.77875011325481,-0.000268791001570118,-0.295977492368922
42,1.71274945855755,-0.000351480850512291,-0.584610878875802
42.0625,1.60458198951483,-0.000409113410331699,-0.858849178967668
42.125,1.45691122088036,-0.000435804169656711,-1.11193974816533
42.1875,1.27337212563048,-0.000428731534078022,-1.33765067119089
42.25,1.05848184996823,-0.000388239837259681,-1.53042421013952
42.3125,0.81752888581694,-0.000317607481656952,-1.68551365226186
42.375,0.556443356879018,-0.000222572231748751,-1.79910018804673
42.4375,0.281651521480917,-0.000110715135518402,-1.868386941941
42.5,-8.20176814692118e-05,9.21243813386559e-06,-1.89166784050885
42.5625,-0.281820589574972,0.000127964833842842,-1.86836962228572
42.625,-0.556626172303203,0.000236457997619511,-1.79906595478671
42.6875,-0.817730361720348,0.000326401796386518,-1.68546331082965
42.75,-1.05870135604515,0.000390908608023797,-1.53035895163516
42.8125,-1.27360278558017,0.000425064490192084,-1.33757205096383
42.875,-1.45714039437518,0.000426424053858218,-1.11184965593443
42.9375,-1.60479287157286,0.000395363237093421,-0.85874979984418
43,-1.71292352843086,0.000335208293935367,-0.584504645018996
43.0625,-1.77887001122,0.000252066386006703,-0.295867025574665
43.125,-1.80100981394713,0.000154318979598738,5.58311565072023e-05
43.1875,-1.77879998795626,5.17990473518967e-05,0.295977309969559
43.25,-1.71279011561909,-4.52589909666849e-05,0.584610830395627
43.3125,-1.60460829991572,-0.00012735336498682,0.858849268283755
43.375,-1.45692059944002,-0.000186767771506368,1.11193995812275
43.4375,-1.27336499053271,-0.000218394576913217,1.33765096676341
43.5,-1.05846154944295,-0.000220228539277038,1.53042454423837
43.5625,-0.817501105684406,-0.000193493493882604,1.68551397323519
43.625,-0.556415114254518,-0.000142421456189628,1.79910044767587
43.6875,-0.28162992274679,-7.37424598628738e-05,1.86838710269394
43.75,9.10351426179395e-05,4.0390642122531e-06,1.89166788095813
43.8125,0.281813309576978,8.1504527119057e-05,1.86836953991042
43.875,0.556601759894987,0.00014924771911442,1.79906576580271
43.9375,0.817691013939657,0.000198802897095384,1.68546304715948
44,1.05865191596867,0.000223509278003899,1.53035865556669
44.0625,1.2735498870489,0.00021924039419666,1.33757176838505
44.125,1.45709128802297,0.000184919389758888,1.11184942922392
44.1875,1.60475413974282,0.000122741666635943,0.858749661517908
44.25,1.71289991697055,3.80435659164415e-05,0.584504613082335
44.3125,1.77886358611849,-6.12047344143575e-05,0.295867101239325
44.375,1.80101959356894,-0.000165245306603977,-5.56631129692287e-05
44.4375,1.77882211720267,-0.000263616115314111,-0.29597707834155
44.5,1.71281855167721,-0.000346319899589573,-0.584610572700096
44.5625,1.60463588768324,-0.000404907242406828,-0.858849024728225
44.625,1.456940344796,-0.000433324310376829,-1.11193976535533
44.6875,1.27337130408253,-0.000428430808819193,-1.3376508523707
44.75,1.05845123868846,-0.000390163476382208,-1.5304245228146
44.8125,0.817473938806296,-0.000321382695285456,-1.68551404457983
44.875,0.556373855610868,-0.000227478236829718,-1.79910059733109
44.9375,0.281579834831711,-0.000115819726321828,-1.86838730466614
45,-0.00014313326957081,4.87630874355537e-06,-1.8916681021334
45.0625,-0.281860258575338,0.000125216204769031,-1.86836974542532
45.125,-0.556637333980006,0.00023581334761819,-1.79906592450524
45.1875,-0.817711025645649,0.000327977907576576,-1.68546313630786
45.25,-1.05865495605848,0.000394401264745413,-1.5303586640588
45.3125,-1.27353756920171,0.000429807256691257,-1.33757169806428
45.375,-1.45706795611956,0.000431516096454008,-1.11184929412214
45.4375,-1.60472609083,0.000399841557209825,-0.858749485225322
45.5,-1.71287427853081,0.000338230625867172,-0.584504424719826
45.5625,-1.77884704711901,0.00025306863179357,-0.295866930712708
45.625,-1.8010172143516,0.000153116370641613,5.57898102139243e-05
45.6875,-1.77883642920438,4.86123647372527e-05,0.295977143043544
45.75,-1.71284910673752,-4.98546244767058e-05,0.584610567618193
45.8125,-1.60467933725067,-0.000132543445226002,0.858848953287407
45.875,-1.45699103556241,-0.000191651378709488,1.1119396412484
45.9375,-1.27342228489914,-0.000222144334320586,1.33765069704484
46,-1.05849550024047,-0.000222228567928542,1.53042436183743
46.0625,-0.817505665552338,-0.000193433967120157,1.68551390349399
46.125,-0.556389466605826,-0.000140338592059529,1.79910049766061
46.1875,-0.281578627033527,-7.00027377846715e-05,1.86838726069074
46.25,0.000158855101317749,8.80390013687818e-06,1.89166811890675
46.3125,0.281885589693968,8.65000156353244e-05,1.86836981830152
46.375,0.556665643176614,0.000153642134520431,1.79906604019584
46.4375,0.8177351387961,0.000201859175472077,1.68546327525218
46.5,1.05866843810453,0.000224705829548393,1.53035880369293
46.5625,1.27353587505804,0.00021836289888162,1.33757181644882
46.625,1.45704924438056,0.000182107154474666,1.11184937334928
46.6875,1.60469155464317,0.000118476605203304,0.858749514080587
46.75,1.71282793465251,3.30780149183176e-05,0.584504400208239
46.8125,1.77879502126833,-6.5973949944963e-05,0.295866858248802
46.875,1.80096665097947,-0.000168937079484192,-5.58975299678743e-05
46.9375,1.77879422053349,-0.000265530421531012,-0.295977268263556
47,1.71282066757224,-0.000346075267808248,-0.584610690453712
47.0625,1.60466764319426,-0.000402520928104736,-0.858849054878096
47.125,1.45699609480579,-0.000429216696377482,-1.11193970663476
47.1875,1.27344113639003,-0.000423351195707904,-1.3376507173302
47.25,1.05852273769445,-0.00038505091077815,-1.5304243353299
47.3125,0.817534393954836,-0.000317188888517786,-1.6855138356936
47.375,0.556412521818832,-0.000224987098199878,-1.79910040014451
47.4375,0.281589843046687,-0.000115498358319,-1.86838714911613
47.5,-0.000163554940664683,2.96673476051834e-06,-1.89166801047756
47.5625,-0.281907470131915,0.000121432853610939,-1.86836972910992
47.625,-0.55670293105469,0.000230865010670781,-1.79906598284796
47.6875,-0.817783334159013,0.000322791551476316,-1.68546325712338
47.75,-1.05872110831837,0.000389946816003125,-1.5303588260462
47.8125,-1.27358579239169,0.00042691383326789,-1.33757187450685
47.875,-1.45708966629454,0.00043071508594512,-1.11184945726458
47.9375,-1.60471742000668,0.000401267280707346,-0.858749610614414
48,-1.71283676314622,0.000341598246586539,-0.584504494835798
48.0625,-1.77878735518649,0.000257733366775143,-0.295866937355173
48.125,-1.80094595960494,0.000158201186176807,5.58446936376744e-05
48.1875,-1.77876628299043,5.31771333413019e-05,0.295977248140962
48.25,-1.71279254347325,-4.66374891805806e-05,0.584610704451779
48.3125,-1.60464641460444,-0.000131241596854375,0.858849099413891
48.375,-1.45698760447113,-0.000192480001210867,1.1119397739132
48.4375,-1.27344894812218,-0.000224941765640784,1.33765079669988
48.5,-1.05854750495221,-0.000226498820818823,1.53042441498285
48.5625,-0.817573749197088,-0.000198442797898733,1.68551390443542
48.625,-0.556461505498797,-0.000145242476874604,1.79910044896927
48.6875,-0.281641794237007,-7.39880012904082e-05,1.86838717236347
48.75,0.000115806790236132,6.39267340643089e-06,1.89166800642841
48.8125,0.281870326078468,8.60591034777304e-05,1.86836969997189
48.875,0.556680884635921,0.000155247479514997,1.79906593417667
48.9375,0.817778176651732,0.000205252433815803,1.68546319680753
49,1.0587316173468,0.000229330562704273,1.53035876303802
49.0625,1.27360795734312,0.00022344840881524,1.33757181750123
49.125,1.45711740851779,0.00018679091778401,1.1118494135204
49.1875,1.6047436783733,0.00012194897363411,0.858749585071116
49.25,1.71285475155317,3.47263156124963e-05,0.584504489622067
49.3125,1.77879176898506,-6.64482957127659e-05,0.295866951722176
49.375,1.80093391765063,-0.000171453129878605,-5.58140457569967e-05
49.4375,1.77873783907454,-0.000269630857062557,-0.29597720642302
49.5,1.71275067695608,-0.000351001952521294,-0.584610657946365
49.5625,1.60459650183168,-0.000407351405166095,-0.858849054565048
49.625,1.45693646406762,-0.000433036427348345,-1.11193973647014
49.6875,1.27340362860414,-0.000425427898633557,-1.33765077101915
49.75,1.05851402908218,-0.000384976288203431,-1.53042440356457
49.8125,0.817556037916161,-0.000314959465359596,-1.68551390773468
49.875,0.556460673354043,-0.000221008084038643,-1.79910046548453
49.9375,0.281655943094593,-0.000110509567598742,-1.86838719897139
50,-9.12570705435162e-05,8.02894215568315e-06,-1.89166803890397
50.0625,-0.281841826964081,0.000125611636438975,-1.86836973361516
50.125,-0.556655611312062,0.000233364018125205,-1.79906596445784
50.1875,-0.817762747603622,0.000323126575885704,-1.68546321994629
50.25,-1.05873091000534,0.00038803897966789,-1.53035877644659
50.3125,-1.27362423234375,0.000423105775268591,-1.33757182004443
50.375,-1.45714990037763,0.000425706154129338,-1.11184940557216
50.4375,-1.60478872692203,0.000395979694501621,-0.858749568375142
50.5,-1.71290645129848,0.000337000410848379,-0.584504466986792
50.5625,-1.77884302039519,0.000254655722147985,-0.295866926600774
50.625,-1.80097769207108,0.000157181680684204,5.58380340395237e-05
50.6875,-1.77876843079566,5.43667752174275e-05,0.295977225969253
50.75,-1.7127647186607,-4.34920751989751e-05,0.584610670470745
50.8125,-1.60459356259904,-0.00012673868688829,0.858849058533841
50.875,-1.45691912428976,-0.000187442424880419,1.11193973157633
50.9375,-1.27337701982303,-0.00022026272600772,1.33765075820911
51,-1.05848492196544,-0.000222984688615238,1.53042438490631
51.0625,-0.81753164139311,-0.000196680467595032,1.68551388613976
51.125,-0.556447358349256,-0.000145510815605479,1.79910044431157
51.1875,-0.28165811671925,-7.62230175790767e-05,1.86838718155495
51.25,7.1928414578884e-05,2.57846798266263e-06,1.89166802806722
51.3125,0.281806709230954,8.13096456071258e-05,1.86836973123248
51.375,0.556608858628217,0.000150359587045617,1.79906597113449
51.4375,0.817710566001419,0.000201049921348298,1.68546323487195
51.5,1.05868045927913,0.00022653244130201,1.53035879745843
51.5625,1.273582359801,0.000222549209846349,1.33757184390549
51.625,1.4571219298894,0.000187971703949475,1.11184942843527
51.6875,1.60477751717278,0.000125035816909477,0.85874958637042
51.75,1.7129118900381,3.92077420644159e-05,0.584504476845351
51.8125,1.77886204487175,-6.13425141756786e-05,0.295866926214145
51.875,1.80100483294314,-0.000166621278601635,-5.58492126994103e-05
51.9375,1.77879678394868,-0.000265938008103892,-0.29597724675778
52,1.7127871729404,-0.000349118034960247,-0.584610698060599
52.0625,1.60460406527543,-0.000407620939548181,-0.858849088860907
52.125,1.45691375860428,-0.000435407269780968,-1.11193975991088
52.1875,1.27335470190601,-0.000429454910714743,-1.33765077987836
52.25,1.05844759210229,-0.000389900695412705,-1.5304243960421
52.3125,0.81748391504652,-0.00031984935512792,-1.68551388433212
52.375,0.556395699245629,-0.000224933358448612,-1.79910042906165
52.4375,0.281609680139735,-0.000112718023721083,-1.86838715444918
52.5,-0.000110574813975976,7.96789123582349e-06,-1.8916679926324
52.5625,-0.281830757933173,0.000127723033812321,-1.86836969248028
52.625,-0.556616118425772,0.000237259642909929,-1.79906593485215
52.6875,-0.817701849258272,0.000328075775426245,-1.68546320675738
52.75,-1.05865943204623,0.000393105614816354,-1.5303587822278
52.8125,-1.27355488279426,0.000427325885405971,-1.33757184451138
52.875,-1.45709500916316,0.000428272316175988,-1.11184944552522
52.9375,-1.60475805250368,0.000396395782153192,-0.858749618082673
53,-1.71290544438044,0.000335175610351306,-0.584504518991528
53.0625,-1.77887185372094,0.000250918748821023,-0.295866972836579
53.125,-1.80103122914764,0.000152212873921894,5.58049793223381e-05
53.1875,-1.77883713936657,4.90633059635486e-05,0.295977211647957
53.25,-1.71283636659394,-4.81886743966464e-05,0.584610677622761
53.3125,-1.60465539451389,-0.000130016659131147,0.858849086555017
53.375,-1.4569601315598,-0.000188761475206868,1.11193977651167
53.4375,-1.27338989986477,-0.000219438612540181,1.33765081328924
53.5,-1.0584673779681,-0.000220205887054527,1.53042444156099
53.5625,-0.817486791046565,-0.000192460163400336,1.68551393533603
53.625,-0.556383178775329,-0.00014058844611058,1.79910047800717
53.6875,-0.281586024437798,-7.14357198380873e-05,1.86838719403141
53.75,0.00013910963490348,6.43273703001034e-06,1.89166801691804
53.8125,0.281857030816467,8.35975080792201e-05,1.86836969783328
53.875,0.556633373600516,0.000150709999181849,1.79906592050326
53.9375,0.817704920847365,0.000199412242038994,1.68546317492588
54,1.05864566804145,0.000223187007673232,1.53035873777636
54.0625,1.27352462278386,0.000218067352091856,1.33757179418822
54.125,1.45705152946983,0.000183127996919687,1.11184939691362
54.1875,1.60470698746219,0.000120682541284729,0.858749578425184
54.25,1.71285378630626,3.61292191855848e-05,0.584504494072074
54.3125,1.77882670975106,-6.25716947243633e-05,0.295866966098442
54.375,1.80099855684846,-0.000165747476376003,-5.57929423630754e-05
54.4375,1.7788206868466,-0.000263085496472488,-0.295977183147611
54.5,1.71283700613856,-0.000344776991460902,-0.584610637473075
54.5625,1.60467096817384,-0.000402565168547226,-0.858849041273871
54.625,1.45698583550439,-0.000430555093547927,-1.11193973325859
54.6875,1.27341913821575,-0.000425699006650921,-1.33765077871122
54.75,1.05849293349662,-0.00038793960038215,-1.53042442073466
54.8125,0.817502104321722,-0.000320053413888438,-1.68551393098034
54.875,0.556383508811611,-0.000227271303461105,-1.79910049009422
54.9375,0.281569285604851,-0.000116758769678472,-1.86838721985826
55,-0.00017198181955532,2.97785174219905e-06,-1.89166805162313
55.0625,-0.281902248801866,0.000122720407816795,-1.86836973526549
55.125,-0.556684971098872,0.000233188762507492,-1.7990659542913
55.1875,-0.817755810746084,0.000325709412501412,-1.68546319956267
55.25,-1.05868889771166,0.000392896399432596,-1.5303587495317
55.3125,-1.2735546048808,0.000429317647758181,-1.3375717916962
55.375,-1.45706503063487,0.000432089835107077,-1.11184938133833
55.4375,-1.60470369991864,0.000401316253740647,-0.858749553184846
55.5,-1.71283638081633,0.000340268445155277,-0.584504464177578
55.5625,-1.77880035998842,0.000255225688670417,-0.295866937229057
55.625,-1.80097001891491,0.000154931529867955,5.58154612502193e-05
55.6875,-1.77879709689591,4.96966102345436e-05,0.295977195284329
55.75,-1.71282460971697,-4.97464880818083e-05,0.584610637184998
55.8125,-1.60467400770928,-0.000133472142806126,0.858849028842259
55.875,-1.45700579478751,-0.000193489311679031,1.11193971120888
55.9375,-1.27345447935959,-0.000224606072212035,1.33765075133916
56,-1.05853937390454,-0.00022492667286623,1.53042439332219
56.0625,-0.817553384381762,-0.000195947629689196,1.68551390884087
56.125,-0.556432512861963,-0.00014228234175958,1.79910047761263
56.1875,-0.281609315197354,-7.10847770068518e-05,1.86838721969158
56.25,0.000146010631349855,8.74072204115275e-06,1.89166806420226
56.3125,0.281892898553682,8.74581539792503e-05,1.86836975868566
56.375,0.556691828321553,0.000155471128161618,1.79906598461452
56.4375,0.817775564152124,0.000204278291063038,1.68546323148404
56.5,1.05871593397883,0.000227345111854571,1.53035877729755
56.5625,1.27358201431849,0.000220818482423875,1.3375718101176
56.625,1.45708584220985,0.000184004539406383,1.11184938672283
56.6875,1.60471212493049,0.000119533243213202,0.858749544021747
56.75,1.71282884386338,3.31548008220598e-05,0.5845044414531
56.8125,1.77877613453561,-6.68427595503639e-05,0.295866904309275
56.875,1.80093135557344,-0.000170543576348694,-5.58533637657899e-05
56.9375,1.77874882268934,-0.000267525440702799,-0.295977231973063
57,1.71277327014568,-0.00034802983121232,-0.584610666523194
57.0625,1.6046267039396,-0.000404006366779334,-0.858849045798664
57.125,1.45696892181082,-0.000429888175037453,-1.11193971272171
57.1875,1.27343258828673,-0.000423017720771269,-1.33765073685007
57.25,1.05853435975486,-0.000383717062888982,-1.53042436488756
57.3125,0.817564143598995,-0.000315059007340422,-1.6855138708023
57.375,0.556455132224207,-0.000222430188158037,-1.79910043588598
57.4375,0.281637760098978,-0.0001129799158336,-1.86838718079747
57.5,-0.000118829019422679,4.97307995012383e-06,-1.89166803420376
57.5625,-0.28187386540684,0.0001225368218457,-1.86836974221124
57.625,-0.556686399482435,0.000230836336879321,-1.79906598412629
57.6875,-0.817786790951896,0.000321606473306307,-1.68546324690753
57.75,-1.05874391333244,0.000387794684804375,-1.53035880606722
57.8125,-1.27362386381943,0.000424161926791027,-1.3375718476231
57.875,-1.45713620653179,0.000427838182447224,-1.11184942707699
57.9375,-1.60476412469182,0.000398756010085873,-0.858749581019063
58,-1.71287529839341,0.000339864944343378,-0.584504469562105
58.0625,-1.77881084025782,0.0002570348386836,-0.295866919535914
58.125,-1.80095019121594,0.000158594049910211,5.58528791220758e-05
58.1875,-1.77875048334048,5.45140026604214e-05,0.295977245716151
58.25,-1.71275949879718,-4.46719284671981e-05,0.584610691759556
58.3125,-1.60460197949527,-0.000129064177618745,0.858849078085805
58.375,-1.45693966012001,-0.000190527659857618,1.11193974668979
58.4375,-1.27340599985222,-0.000223592094700897,1.33765076711501
58.5,-1.05851716866028,-0.000226007142948254,1.53042438694042
58.5625,-0.817561396111178,-0.00019890508687285,1.68551388172188
58.625,-0.556469306477142,-0.000146587281981931,1.79910043475714
58.6875,-0.28166833369886,-7.59951496940772e-05,1.86838716876843
58.75,7.52786293585683e-05,4.05239233619688e-06,1.89166801418187
58.8125,0.281823047625795,8.3770686028623e-05,1.8683697182621
58.875,0.556635294563384,0.000153392506213,1.79906596069322
58.9375,0.817742412116682,0.000204151119498413,1.68546322799849
59,1.05871206609241,0.000229191822171336,1.5303587945588
59.0625,1.27360812133798,0.000224334374945807,1.33757184480432
59.125,1.45713728129464,0.00018860175098388,1.11184943250781
59.1875,1.60477974676068,0.00012443227338518,0.858749592717684
59.25,1.71290062135206,3.75124593470768e-05,0.584504484472341
59.3125,1.7788393031143,-6.3787981616091e-05,0.295866934177216
59.375,1.80097468413254,-0.000169333535657193,-5.58417090110175e-05
59.4375,1.77876461116872,-0.000268378097471515,-0.295977240318944
59.5,1.71275871855834,-0.000350790816608348,-0.58461069310926
59.5625,1.60458440954662,-0.000408168687451276,-0.858849085670596
59.625,1.45690641629881,-0.000434679090592624,-1.11193975864594
59.6875,1.27336099751948,-0.000427538124073827,-1.33765078062003
59.75,1.05846642462464,-0.000387107785060194,-1.53042439878722
59.8125,0.817511953991915,-0.000316662734018532,-1.68551388896532
59.875,0.556427977007751,-0.000221918143848575,-1.79910043531181
59.9375,0.28164047533412,-0.000110418826041903,-1.868387161848
60,-8.67200350115889e-05,9.12736743707411e-06,-1.89166800049745
60.0625,-0.28181806739826,0.000127519275713243,-1.86836969994132
60.125,-0.556616830786922,0.000235712793862681,-1.79906594092965
60.1875,-0.817715819706179,0.000325448698890257,-1.68546321049052
60.25,-1.05868415777361,0.000389857783691552,-1.53035878283457
60.3125,-1.27358594779211,0.00042402965605936,-1.3375718415531
60.375,-1.45712686938748,0.000425506607525676,-1.11184943904089
60.4375,-1.60478502188849,0.000394637248233979,-0.858749608660253
60.5,-1.71292270637437,0.000334708720288368,-0.58450450775015
60.5625,-1.77887631838354,0.000251783019111617,-0.295866961311709
60.625,-1.80102208322176,0.000154198101389922,5.58150428099924e-05
60.6875,-1.77881599130835,5.17535013637564e-05,0.295977218564011
60.75,-1.71280696060523,-4.53324124841665e-05,0.584610680054579
60.8125,-1.60462294435956,-0.000127552157597063,0.858849083775017
60.875,-1.45693039269086,-0.000187161835417274,1.1119397685802
60.9375,-1.27336814502002,-0.000219008842226467,1.33765080111413
61,-1.05845745866135,-0.000221034014760352,1.53042442681362
61.0625,-0.817490452073793,-0.000194409020136213,1.68551392022914
61.125,-0.556399747812954,-0.000143326270953955,1.79910046496106
61.1875,-0.281612531982402,-7.4497448314188e-05,1.86838718528001
61.25,0.000107401394959896,3.565400064332e-06,1.89166801411958
61.3125,0.281825784437154,8.14104280696159e-05,1.86836970175467
61.375,0.556608168385043,0.00014957801419966,1.79906593083773
61.4375,0.817690259908186,0.000199538576215108,1.68546319028479
61.5,1.05864417716736,0.000224569220456744,1.53035875586565
61.5625,1.27353658364019,0.000220495272737199,1.33757181215042
61.625,1.45707483008422,0.000186215215232283,1.11184941178376
61.6875,1.6047374986418,0.00012392828055318,0.858749587626689
61.75,1.71288609683344,3.90021592716122e-05,0.584504495869989
61.8125,1.7788550894061,-6.0540916820792e-05,0.295866959928558
61.875,1.80101797585162,-0.000164881438675545,-5.58063318527036e-05
61.9375,1.77882771037314,-0.000263499221495712,-0.29597720177295
62,1.71283040487881,-0.00034635399853724,-0.584610658405215
62.0625,1.60465193648621,-0.000404976307031125,-0.858849061102853
62.125,1.45695777852672,-0.000433317618592183,-1.11193974865474
62.1875,1.27338706593439,-0.000428265215666769,-1.33765078699166
62.25,1.05846256960588,-0.000389798453020238,-1.53042442033722
62.3125,0.817478868344137,-0.000320826104886852,-1.68551392175949
62.375,0.556371552418193,-0.000226783027107067,-1.7991004733835
62.4375,0.281570754404456,-0.000115073399364252,-1.8683871982818
62.5,-0.00015732983113245,5.56674275576007e-06,-1.8916680286822
62.5625,-0.281877000310334,0.000125741031432473,-1.86836971476545
62.625,-0.556653597649153,0.000236076404216771,-1.79906593970388
62.6875,-0.817723873700929,0.000327910577057684,-1.68546319343169
62.75,-1.05866205926174,0.000393972944562598,-1.53035875302467
62.8125,-1.27353762090583,0.00042903126099969,-1.33757180438144
62.875,-1.45706090452261,0.000430450060471796,-1.11184940123079
62.9375,-1.60471314791794,0.00039858165873556,-0.858749577055587
63,-1.7128577041683,0.000336899554720246,-0.584504488080906
63.0625,-1.77882974675521,0.00025179829036375,-0.295866957159159
63.125,-1.80100222196056,0.000152027589212129,5.58028940344513e-05
63.1875,-1.77882636747818,4.77950561317071e-05,0.295977192271467
63.25,-1.71284572057098,-5.0356931758489e-05,0.584610644333399
63.3125,-1.60468318348911,-0.000132741182076217,0.85884904505263
63.375,-1.45700138416254,-0.000191606484411922,1.11193973384216
63.4375,-1.27343724903312,-0.000221957674514338,1.33765077664591
63.5,-1.05851237215023,-0.000222019294887154,1.53042441706704
63.5625,-0.817521398378073,-0.000193314696062181,1.68551392701504
63.625,-0.556401216469667,-0.000140391283613948,1.79910048711587
63.6875,-0.281584258962252,-7.02602007019403e-05,1.86838721886629
63.75,0.000160387387435538,8.3669404298785e-06,1.8916680531264
63.8125,0.28189405766462,8.59641184256022e-05,1.86836973917288
63.875,0.556679584148451,0.000153128728003837,1.79906595991844
63.9375,0.817752116142295,0.000201506999994619,1.6854632057545
64,1.05868547475153,0.00022464271455513,1.53035875488059
64.0625,1.27354998317699,0.000218678551188893,1.33757179481652
64.125,1.45705795705255,0.000182832713502262,1.11184938114813
64.1875,1.6046933649018,0.000119575537453383,0.858749549141046
64.25,1.71282256376065,3.44506137371775e-05,0.584504456419314
64.3125,1.77878346845233,-6.44731755556351e-05,0.295866926598817
64.375,1.8009510157278,-0.00016747280222159,-5.58275254350926e-05
64.4375,1.77877732905006,-0.00026425650388367,-0.295977206970063
64.5,1.7128055698472,-0.000345107917978206,-0.584610646602282
64.5625,1.60465707020277,-0.000401920587424288,-0.858849034342533
64.625,1.45699197245663,-0.000428981911355328,-1.11193971167083
64.6875,1.27344424274885,-0.000423424744567229,-1.3376507463694
64.75,1.05853256449965,-0.000385335712184704,-1.53042438333879
64.8125,0.817549237070293,-0.000317569449309876,-1.6855138950251
64.875,0.556429784509847,-0.000225351780647385,-1.7991004617401
64.9375,0.281606498083453,-0.000115758430205866,-1.86838720387336
65,-0.000150426609259084,2.86391964392636e-06,-1.89166805057791
65.0625,-0.281900160003874,0.000121497662422155,-1.86836974911706
65.125,-0.55670269541671,0.000231066190824448,-1.79906598042497
65.1875,-0.817790170663705,0.00032306283005972,-1.68546323327801
65.25,-1.05873375651976,0.000390198175679667,-1.53035878488394
65.3125,-1.27360195810643,0.000427046066075914,-1.33757182254267
65.375,-1.45710642983451,0.000430636073461001,-1.11184940240608
65.4375,-1.60473175562447,0.000400908152688142,-0.858749560973704
65.5,-1.71284607726611,0.000340927195131472,-0.584504457543995
65.5625,-1.77878994767246,0.000256764679304641,-0.295866917552818
65.625,-1.8009413260307,0.000156997308066664,5.5844551433204e-05
65.6875,-1.77875520417937,5.1842467241869e-05,0.295977228573417
65.75,-1.71277694642785,-4.79708556360629e-05,0.584610668802434
65.8125,-1.60462902960901,-0.000132434297057021,0.858849053295475
65.875,-1.45697147939421,-0.000193408462023535,1.11193972433783
65.9375,-1.27343690632315,-0.000225519611556423,1.3376507510259
66,-1.05854164320259,-0.000226692327456177,1.53042437983413
66.0625,-0.817575064889746,-0.000198277093618997,1.68551388475177
66.125,-0.556469719413318,-0.000144796893740455,1.79910044731982
66.1875,-0.281655400351503,-7.33810567163965e-05,1.86838718861901
66.25,9.92733195505707e-05,7.02612220014828e-06,1.89166803783279
66.3125,0.281853850434885,8.65943343156391e-05,1.86836974159482
66.375,0.556667441335622,0.000155594886440461,1.79906597967601
66.4375,0.81777020044702,0.00020537592039803,1.68546323938499
66.5,1.05873057014323,0.000229255313440333,1.53035879644562
66.5625,1.27361406817301,0.000223255987928867,1.33757183695209
66.625,1.45712963284494,0.000186602234089394,1.11184941637026
66.6875,1.60475988399394,0.000121898335546318,0.858749571176239
66.75,1.71287209804019,3.49319554298682e-05,0.584504461323121
66.8125,1.77880721317183,-6.59108217300787e-05,0.295866913462234
66.875,1.80094475520237,-0.000170568739466767,-5.58564079303769e-05
66.9375,1.77874218575517,-0.0002684499924269,-0.295977246502124
67,1.71274780392097,-0.000349631956215801,-0.584610689785854
67.0625,1.60458696525844,-0.000405936530933192,-0.858849073518739
67.125,1.45692200605298,-0.000431731332099847,-1.11193973987983
67.1875,1.27338686698124,-0.000424370607716522,-1.33765075858843
67.25,1.05849799139362,-0.000384266165925086,-1.53042437737677
67.3125,0.817543622516952,-0.000314643967014847,-1.68551387191515
67.375,0.556454133577502,-0.000221079687526256,-1.79910042555975
67.4375,0.281656486289378,-0.000110912030075727,-1.86838716102304
67.5,-8.3684290414223e-05,7.38742965725062e-06,-1.89166800864701
67.5625,-0.281828529072453,0.000124841498742909,-1.8683697155381
67.625,-0.556638911585151,0.000232576539905899,-1.79906596115528
67.6875,-0.817745574570621,0.000322417744192398,-1.68546323174278
67.75,-1.05871627625344,0.000387476624829568,-1.53035880136775
67.8125,-1.27361469843268,0.000422721138352033,-1.33757185413788
67.875,-1.45714711924909,0.000425490638789439,-1.1118494435268
67.9375,-1.60479314985029,0.000395887282075135,-0.858749604343533
68,-1.71291724767315,0.000336955826311594,-0.584504495484831
68.0625,-1.77885822557678,0.00025456777341623,-0.295866943343972
68.125,-1.80099455698358,0.000156960258033071,5.58354825896945e-05
68.1875,-1.77878391103837,5.39410038018745e-05,0.295977237839789
68.25,-1.71277601611518,-4.41577394436326e-05,0.584610694770308
68.3125,-1.60459862318572,-0.000127633709333095,0.858849091372338
68.375,-1.45691700334538,-0.000188507389261163,1.11193976778371
68.4375,-1.27336805012857,-0.000221395693317972,1.33765079214636
68.5,-1.05847065455992,-0.000224056164421484,1.53042441134394
68.5625,-0.817514569716312,-0.000197554656452286,1.68551390106575
68.625,-0.556430474781058,-0.000146069451210184,1.79910044554443
68.6875,-0.281644380380112,-7.63873296220547e-05,1.86838716906669
68.75,8.01179626882926e-05,2.83199544349376e-06,1.89166800396798
68.8125,0.281807938791626,8.19431300586903e-05,1.86836969942092
68.875,0.556602952777679,0.00015127895318453,1.79906593667116
68.9375,0.817698618367195,0.000202121041807261,1.68546320317555
69,1.05866463809995,0.000227605540978048,1.53035877345306
69.0625,1.27356552232018,0.000223486954239301,1.33757183125254
69.125,1.45710711414524,0.000188675295356959,1.1118494289713
69.1875,1.60476740157848,0.000125463499066962,0.858749599837199
69.25,1.71290831689759,3.93814999744601e-05,0.584504500953316
69.3125,1.77886569262502,-6.13437674222372e-05,0.295866957025305
69.375,1.80101509548331,-0.000166680651252715,-5.58166448348385e-05
69.4375,1.77881187850659,-0.000265927461217777,-0.295977217594025
69.5,1.71280445734819,-0.000348926983644627,-0.58461067685771
69.5625,1.60462050814538,-0.000407180228383393,-0.858849078855868
69.625,1.45692647873462,-0.00043470349520858,-1.11193976252303
69.6875,1.27336148090402,-0.000428532633886621,-1.3376507945066
69.75,1.05844726899156,-0.000388853050781264,-1.53042442018515
69.8125,0.817476592646669,-0.000318800049456219,-1.68551391401083
69.875,0.556382725630364,-0.00022401446473642,-1.79910045947286
69.9375,0.281593408519554,-0.000112048125995651,-1.8683871807432
70,-0.000127205006030318,8.30152129725409e-06,-1.89166801068846
70.0625,-0.281844744169405,0.000127675971350929,-1.86836969955587
70.125,-0.556624929319577,0.000236834762813069,-1.7990659300026
70.1875,-0.817703874851545,0.000327320972340442,-1.6854631909614
70.25,-1.05865427005407,0.000392105821837033,-1.5303587582018
70.3125,-1.27354340991825,0.000426190728226164,-1.33757181624679
70.375,-1.45707922483496,0.000427120872553223,-1.11184941762682
70.4375,-1.60474072290923,0.000395340079438083,-0.858749595017748
70.5,-1.71288961013925,0.000334304766556159,-0.584504504371673
70.5625,-1.77886028883566,0.000250285947802811,-0.295866968850031
70.625,-1.8010259474884,0.000151827428818559,5.57978979691121e-05
70.6875,-1.77883903647669,4.8889663600259e-05,0.295977194856977
70.75,-1.71284506051168,-4.82241060073382e-05,0.584610654022518
70.8125,-1.60466929389014,-0.000130011394971004,0.858849060090754
70.875,-1.45697671891628,-0.000188817625029357,1.11193975151427
70.9375,-1.27340617957506,-0.000219641680935202,1.33765079376609
71,-1.05848040925738,-0.000220605695346644,1.53042443055086
71.0625,-0.817494211199166,-0.000193057751323601,1.68551393443413
71.125,-0.556383623492417,-0.000141331891475966,1.79910048713446
71.1875,-0.281579370583884,-7.22262659876589e-05,1.86838721148112
71.25,0.000151722072209081,5.72477132900233e-06,1.89166803966737
71.3125,0.281873401469123,8.31095155748997e-05,1.86836972206415
71.375,0.556650633122254,0.000150560681878193,1.79906594224239
71.4375,0.817720041375413,0.00019967710361072,1.68546319069755
71.5,1.05865600192844,0.000223880853620381,1.5303587451594
71.5625,1.27352837376008,0.000219137863285009,1.33757179218887
71.625,1.45704807239035,0.000184462392811603,1.11184938609593
71.6875,1.60469697970961,0.000122126627230659,0.858749560782015
71.75,1.7128390509793,3.75152874430959e-05,0.584504472664794
71.8125,1.77880991138137,-6.13938603652988e-05,0.295866944528856
71.875,1.80098272732552,-0.000164883198482405,-5.58111379663218e-05
71.9375,1.77880868591126,-0.000262577424000697,-0.295977195079239
72,1.71283101247156,-0.000344600714935115,-0.584610641356543
72.0625,1.60467209167129,-0.000402638776279815,-0.858849036698334
72.125,1.45699391976163,-0.000430759922795175,-1.11193972121876
72.1875,1.2734327883757,-0.000425906422568378,-1.33765076140634
72.25,1.05850976449323,-0.000388037705735766,-1.53042440117271
72.3125,0.817519165314106,-0.00031996825555599,-1.68551391245735
72.375,0.556397808248849,-0.000226978999109932,-1.79910047563907
72.4375,0.28157832346663,-0.00011628734029554,-1.86838721173651
72.5,-0.000169769315743876,3.55598843460218e-06,-1.89166805098129
72.5625,-0.281907211134703,0.000123302830390121,-1.86836974197176
72.625,-0.556696181454988,0.00023366120928844,-1.79906596699451
72.6875,-0.817771231089786,0.00032596465078679,-1.68546321595402
72.75,-1.05870574149686,0.000392851219687667,-1.53035876675961
72.8125,-1.27356983283968,0.000428926020469926,-1.33757180686037
72.875,-1.45707589142259,0.00043135082765102,-1.11184939197842
72.9375,-1.60470821943754,0.000400275775665057,-0.858749557679521
73,-1.71283371319503,0.000339014381565013,-0.584504461991531
73.0625,-1.77879093781909,0.000253876643027133,-0.295866928967992
73.125,-1.80095547607092,0.000153620293740951,5.58281894906809e-05
73.1875,-1.77877997770599,4.85505001971878e-05,0.295977210174584
73.25,-1.71280791626463,-5.0625405309754e-05,0.584610651647906
73.3125,-1.60466066580228,-0.000134023495268889,0.85884904045329
73.375,-1.45699813358671,-0.000193704355780427,1.1119397181147
73.4375,-1.27345381720708,-0.000224528900725563,1.33765075255271
73.5,-1.05854578398862,-0.000224645984407822,1.5304243888615
73.5625,-0.817565681886715,-0.000195580083698463,1.68551389969018
73.625,-0.556448465863708,-0.00014195016304882,1.79910046551963
73.6875,-0.281626041782449,-7.0891516156189e-05,1.86838720684073
73.75,0.000131529656143909,8.73175785574217e-06,1.8916680528236
73.8125,0.281883282548362,8.72384639298593e-05,1.86836975066948
73.875,0.556688830828852,0.000155091254387995,1.79906598119794
73.9375,0.817779760936203,0.000203840179282378,1.68546323306123
74,1.05872662059826,0.000226983332218724,1.53035878338315
74.0625,1.27359733148207,0.000220673449844591,1.33757181946339
74.125,1.45710310664087,0.000184192875526466,1.11184939756377
74.1875,1.60472830688869,0.000120121486816175,0.858749554403464
74.25,1.71284110635733,3.41423884540172e-05,0.584504449580698
74.3125,1.77878233825599,-6.55270756624482e-05,0.295866908856418
74.375,1.80093043966023,-0.000169030642740158,-5.58530390094014e-05
74.4375,1.77874099353856,-0.00026598214751544,-0.295977235740452
74.5,1.71275996463429,-0.000346628277456656,-0.584610673532942
74.5625,1.60461033361502,-0.000402892622714458,-0.858849054658521
74.625,1.4569524435958,-0.00042915740720751,-1.11193972176635
74.6875,1.27341897813917,-0.000422700613472464,-1.33765074444846
74.75,1.05852608299224,-0.000383779534872146,-1.530424369735
74.8125,0.817562716173276,-0.000315414094259501,-1.68551387214353
74.875,0.556460851020696,-0.000222958500062416,-1.79910043363151
74.9375,0.28164965022606,-0.000113553813110693,-1.86838717551619
75,-0.000102840615176071,4.46643329258428e-06,-1.89166802699567
75.0625,-0.281856580942636,0.000122177359368476,-1.86836973448773
75.125,-0.556670851655668,0.000230660254723553,-1.7990659773404
75.1875,-0.817775703322149,0.000321603409853857,-1.68546324228478
75.25,-1.05873921577764,0.000387912401725087,-1.53035880438671
75.3125,-1.27362634925394,0.000424317134405894,-1.3375718490871
75.375,-1.45714538992736,0.000427931675103471,-1.11184943129099
75.4375,-1.60477832944611,0.00039869002013913,-0.85874958708393
75.5,-1.71289195464968,0.000339560457559882,-0.584504476256418
75.5625,-1.77882694208536,0.000256446515197719,-0.295866925555173
75.625,-1.80096283131601,0.000157720462070358,5.58486739721253e-05
75.6875,-1.77875737016753,5.34012905611496e-05,0.295977244087757
75.75,-1.71275936412654,-4.59340711644026e-05,0.584610692957496
75.8125,-1.60459480396371,-0.000130354089887715,0.858849081809708
75.875,-1.45692667664447,-0.000191709424914008,1.11193975215803
75.9375,-1.27338947433495,-0.000224536712557628,1.33765077322286
76,-1.05849999699044,-0.000226613686230726,1.53042439247645
76.0625,-0.817546589134798,-0.000199118129838287,1.68551388560284
76.125,-0.556459454523866,-0.000146407300847995,1.79910043623432
76.1875,-0.281665145888522,-7.54796020422382e-05,1.86838716756841
76.25,7.12783710346245e-05,4.79810764910399e-06,1.89166801055523
76.3125,0.281812613772144,8.46114009180477e-05,1.86836971293151
76.375,0.556620325817718,0.000154187789007513,1.79906595471192
76.4375,0.81772561370886,0.000204781813372953,1.68546322254632
76.5,1.058696468586,0.00022958347872516,1.53035879071448
76.5625,1.27359654153098,0.000224472578993952,1.33757184333768
76.625,1.45713182111919,0.000188535589119838,1.1118494337306
76.6875,1.60478141934898,0.000124264479962445,0.858749596421937
76.75,1.71290917082473,3.73776773514964e-05,0.584504489966882
76.8125,1.77885325018089,-6.3752529078253e-05,0.295866940416518
76.875,1.80099158940164,-0.000169018638492421,-5.58359270532161e-05
76.9375,1.7787815093061,-0.000267727546088974,-0.295977236125453
77,1.71277264601073,-0.000349815122537305,-0.584610691346791
77.0625,1.60459293189021,-0.000406944576148031,-0.858849086729371
77.125,1.45690806134485,-0.000433335245217754,-1.11193976238301
77.1875,1.27335551710072,-0.000426230846496238,-1.33765078637881
77.25,1.05845483850109,-0.000385992297531553,-1.53042440551378
77.3125,0.817496368111895,-0.000315866308890027,-1.68551389540169
77.375,0.556411208524974,-0.000221520188730322,-1.79910044023003
77.4375,0.281625551163233,-0.000110440972728683,-1.86838716428166
77.5,-9.71018615794125e-05,8.72052009688032e-06,-1.89166799992821
77.5625,-0.281822017722312,0.000126810194541075,-1.86836969640382
77.625,-0.556613605283316,0.000234814612817633,-1.7990659350152
77.6875,-0.817705951077653,0.000324485725866692,-1.68546320324663
77.75,-1.05866936071611,0.000388946110090459,-1.53035877557831
77.8125,-1.27356881369031,0.000423260509778766,-1.33757183563168
77.875,-1.45711040509729,0.000424934381114615,-1.11184943558219
77.9375,-1.60477211468277,0.000394273441651327,-0.858749608360116
78,-1.71291561024443,0.000334522397039216,-0.584504510736853
78.0625,-1.7788762530729,0.000251707721315622,-0.295866967111122
78.125,-1.80102901730199,0.000154144428881563,5.58074304650158e-05
78.1875,-1.7788286478614,5.16257396451602e-05,0.295977210490349
78.25,-1.71282304447743,-4.56180017925009e-05,0.584610672982283
78.3125,-1.60463955054358,-0.000128050283162331,0.858849079012552
78.375,-1.45694452318122,-0.000187885321642139,1.11193976704066
78.4375,-1.27337724220191,-0.00021992246142887,1.33765080314229
78.5,-1.05845986035817,-0.000222056529251788,1.53042443211423
78.5625,-0.817485687315234,-0.000195423653614765,1.68551392790932
78.625,-0.556388620712086,-0.000144198387817937,1.79910047368272
78.6875,-0.281596978791064,-7.50968580081591e-05,1.86838719349409
78.75,0.000124656645920566,3.34116024262241e-06,1.89166802034234
78.8125,0.281841714482538,8.16160307152364e-05,1.86836970483561
78.875,0.556619981281754,0.000150207555498825,1.79906593017147
78.9375,0.817695895805539,0.000200523172711745,1.68546318592749
79,1.05864267490364,0.000225786371664771,1.53035874853452
79.0625,1.27352825191266,0.000221789088929862,1.33757180310472
79.125,1.45706119269359,0.000187424185011284,1.11184940260693
79.1875,1.60472102350859,0.000124915254654732,0.858749579948263
79.25,1.71286975697063,3.96802457249762e-05,0.584504491075872
79.3125,1.77884183395784,-6.01923881450319e-05,0.295866958910638
79.375,1.80101020533524,-0.000164814741696713,-5.58033408959435e-05
79.4375,1.77882684952976,-0.000263610591432107,-0.295977195248555
79.5,1.71283664916949,-0.000346507802667597,-0.584610649456145
79.5625,1.6046642173573,-0.000405035481588407,-0.858849051281241
79.625,1.45697395361594,-0.000433173448593528,-1.11193973968583
79.6875,1.27340430034165,-0.00042785997619114,-1.33765078047029
79.75,1.05847784034416,-0.000389136472370482,-1.53042441744316
79.8125,0.817489502174597,-0.000319971758459698,-1.68551392304375
79.875,0.556375701356254,-0.000225847139045712,-1.79910047866452
79.9375,0.28156772430507,-0.000114191756361571,-1.86838720667007
80,-0.000166956029990385,6.25799030805164e-06,-1.89166803873062
80.0625,-0.28189146655438,0.000126128408371566,-1.86836972472028
80.125,-0.556670287386796,0.000236086902653654,-1.79906594781198
80.1875,-0.817739775489034,0.000327521950189238,-1.68546319825041
80.25,-1.05867430250034,0.000393215724877021,-1.53035875367916
80.3125,-1.27354398639652,0.000427982960536334,-1.33757180072362
80.375,-1.45706021904957,0.000429222903294905,-1.11184939387095
80.4375,-1.6047054927004,0.000397305784003861,-0.858749567260321
80.5,-1.71284440015103,0.000335704009844637,-0.584504477553889
80.5625,-1.77881311939953,0.000250792369561766,-0.295866947744019
80.625,-1.80098518741166,0.000151285134019298,5.58095379108448e-05
80.6875,-1.77881191374313,4.73441152549609e-05,0.295977194961949
80.75,-1.71283637600007,-5.05372871572964e-05,0.584610642576811
80.8125,-1.6046805670957,-0.000132716081989135,0.858849039134349
80.875,-1.45700591774815,-0.000191472967352637,1.11193972477971
80.9375,-1.27344808229918,-0.000221826606508306,1.33765076601411
81,-1.05852753409554,-0.000221994298511797,1.53042440672288
81.0625,-0.817538148039414,-0.000193471554576787,1.68551391877279
81.125,-0.556416530613589,-0.000140761434102855,1.79910048242771
81.1875,-0.281595369981685,-7.08215138117579e-05,1.86838721856599
81.25,0.000155499050329539,7.68987338864821e-06,1.89166805728075
81.3125,0.281896304168368,8.52894421191428e-05,1.86836974706771
81.375,0.556688607916293,0.000152597589362192,1.7990659701816
81.4375,0.81776635344631,0.000201257585169669,1.68546321659515
81.5,1.05870243393574,0.000224782626102244,1.53035876440223
81.5625,1.27356668804392,0.000219260998428054,1.33757180134951
81.625,1.45707147653163,0.000183841819171556,1.11184938354322
81.6875,1.60470133473949,0.000120924636767447,0.858749546971901
81.75,1.71282360736794,3.59948628892389e-05,0.584504450058447
81.8125,1.77877744197715,-6.29117650397125e-05,0.295866917154396
81.875,1.80093903370353,-0.000166072840328483,-5.58384033729764e-05
81.9375,1.77876156603821,-0.000263164174809209,-0.295977217378004
82,1.71278887338305,-0.000344410704217421,-0.584610654716662
82.0625,1.6046424539569,-0.000401633504851698,-0.858849038740273
82.125,1.4569820798523,-0.000429048955715081,-1.11193971157985
82.1875,1.2734408765253,-0.000423734607154624,-1.33765074180471
82.25,1.05853636595176,-0.000385747617732518,-1.53042437510061
82.3125,0.817559572028878,-0.000317943035857657,-1.68551388455888
82.375,0.556444856310362,-0.000225574644645247,-1.79910045088283
82.4375,0.281623667367408,-0.000115766145152452,-1.86838719453054
82.5,-0.000134172212877559,3.07836947348747e-06,-1.89166804438854
82.5625,-0.281887669916097,0.000121885680209429,-1.86836974716521
82.625,-0.5566961492255,0.000231535136850691,-1.79906598304914
82.6875,-0.817790690477319,0.00032349445616927,-1.68546324001187
82.75,-1.05874120747995,0.000390470337383278,-1.53035879453891
82.8125,-1.27361497250281,0.000427054113712318,-1.33757183341778
82.875,-1.45712265048972,0.000430310783108968,-1.11184941258794
82.9375,-1.60474825522931,0.000400227788074727,-0.858749568673515
83,-1.71285987906416,0.000339922162280344,-0.584504461412865
83.0625,-1.77879855488476,0.000255514195189898,-0.295866916917935
83.125,-1.80094316587037,0.0001556185368385,5.58495688740557e-05
83.1875,-1.77874990750511,5.04736311549871e-05,0.295977237080593
83.25,-1.71276541332014,-4.91909386656627e-05,0.58461067929429
83.3125,-1.60461326922408,-0.000133387147389408,0.858849063920655
83.375,-1.4569542525887,-0.000194014051794698,1.1119397332257
83.4375,-1.27342123461132,-0.00022574870334383,1.3376507566163
83.5,-1.05853027137332,-0.000226570895941224,1.53042438115184
83.5625,-0.817569972849547,-0.000197881839767532,1.6855138815767
83.625,-0.556471770069422,-0.000144242193191319,1.79910044022442
83.6875,-0.281664186161421,-7.27990461624173e-05,1.86838717886509
83.75,8.5357829903706e-05,7.50937502304283e-06,1.89166802714724
83.8125,0.281837323066697,8.68826855560333e-05,1.86836973186399
83.875,0.556651284310884,0.000155641662529037,1.79906597261257
83.9375,0.817757329863682,0.00020519509161274,1.6854632362264
84,1.05872331717328,0.000228921345457778,1.53035879773716
84.0625,1.27361376431653,0.000222891357971025,1.33757184245234
84.125,1.4571363730563,0.000186354099787474,1.1118494250962
84.1875,1.60477250985393,0.000121908414883807,0.858749581577784
84.25,1.71288840398703,3.53056548473897e-05,0.584504471558706
84.3125,1.77882433909232,-6.51292553261124e-05,0.295866921724982
84.375,1.80095969550005,-0.000169409171420816,-5.58515722371422e-05
84.4375,1.7787523242687,-0.000267014087290833,-0.29597724593784
84.5,1.71275137946396,-0.000348075760360298,-0.584610693579942
84.5625,1.60458338491399,-0.000404441722201153,-0.858849080987433
84.625,1.45691195047771,-0.000430471564709501,-1.11193974969084
84.6875,1.27337216901824,-0.000423480340892644,-1.33765076899819
84.75,1.05848130965698,-0.000383818433190153,-1.5304243865408
84.8125,0.81752796809986,-0.000314641111290886,-1.68551387821448
84.875,0.556442334155346,-0.000221457946465651,-1.79910042788732
84.9375,0.281650682996749,-0.000111557887804968,-1.86838715897925
85,-8.24177009718437e-05,6.61331941241255e-06,-1.89166800260832
85.0625,-0.281820377071802,0.000124077939123338,-1.86836970658856
85.125,-0.556625283814442,0.000231937863406635,-1.79906595089208
85.1875,-0.817728854833843,0.000321976145365614,-1.68546322199149
85.25,-1.05869939825659,0.000387253030127515,-1.5303587938578
85.3125,-1.27360062376933,0.000422685276111331,-1.33757185019506
85.375,-1.45713831049832,0.000425569550853861,-1.11184944383952
85.4375,-1.60479113250326,0.000395980424538293,-0.858749608842647
85.5,-1.71292233879346,0.0003369541703654,-0.584504503356913
85.5625,-1.77886947743928,0.000254373923535087,-0.295866953179133
85.625,-1.80100992570109,0.000156506548258702,5.58254388304813e-05
85.6875,-1.77880062017342,5.32028332122171e-05,0.295977229373961
85.75,-1.71279105059862,-4.51554019659526e-05,0.584610689383207
85.8125,-1.60460926569114,-0.000128817732592417,0.858849090012697
85.875,-1.45692131771762,-0.000189765707606569,1.1119397706814
85.9375,-1.27336522587889,-0.000222593094214932,1.33765079877379
86,-1.05846115114633,-0.000225054390404542,1.53042442051105
86.0625,-0.817500034931255,-0.000198233893311522,1.68551391113452
86.125,-0.55641345174191,-0.000146347948267912,1.79910045472047
86.1875,-0.281627855217497,-7.62359559620522e-05,1.86838717571928
86.25,9.32472822542015e-05,3.38297808323e-06,1.89166800691954
86.3125,0.281815378029937,8.28068628421182e-05,1.86836969815532
86.375,0.556603419655147,0.000152324740031805,1.79906593142387
86.4375,0.817692070811369,0.00020319573009533,1.68546319489018
86.5,1.05865228186789,0.000228560341688952,1.53035876361161
86.5625,1.27354959659761,0.000224204975121433,1.33757182161111
86.625,1.45709049323619,0.000189094268693467,1.11184942124697
86.6875,1.60475308354119,0.000125588541411902,0.85874959540244
86.75,1.712898890123,3.92844096911669e-05,0.584504500592531
86.8125,1.77886287529695,-6.15393885003079e-05,0.295866960796093
86.875,1.80101942989683,-0.000166825872067266,-5.58094209914262e-05
86.9375,1.77882263465552,-0.000265880579713989,-0.295977208210187
87,1.71281976293272,-0.0003485849699423,-0.58461066698996
87.0625,1.60463768183732,-0.000406501980699407,-0.858849070265086
87.125,1.45694250735379,-0.000433719796477107,-1.11193975674041
87.1875,1.27337355555265,-0.000427340928360173,-1.33765079256064
87.25,1.05845328472289,-0.000387598720071331,-1.53042442241915
87.3125,0.817475522765031,-0.000317648775460083,-1.68551392002182
87.375,0.556374804064148,-0.000223121832108902,-1.79910046818415
87.4375,0.281580087883722,-0.000111532618834991,-1.86838719059706
87.5,-0.000143512123026445,8.37730022821734e-06,-1.89166801992468
87.5625,-0.281861094603129,0.000127313157832916,-1.86836970652606
87.625,-0.556638372981707,0.000236094785403173,-1.79906593346448
87.6875,-0.817711979473654,0.000326312433329464,-1.68546319030012
87.75,-1.05865555369747,0.000390964722736528,-1.5303587535394
87.8125,-1.27353760435409,0.000425057729129935,-1.33757180841945
87.875,-1.457067322994,0.000426119298840649,-1.11184940803498
87.9375,-1.60472480200719,0.000394557920035597,-0.858749585375699
88,-1.71287246197472,0.000333783106934557,-0.584504496401241
88.0625,-1.77884492304259,0.000250015272298463,-0.295866963973017
88.125,-1.80101505610884,0.000151752099723608,5.57988126784204e-05
88.1875,-1.77883451508877,4.89197291332199e-05,0.295977191649049
88.25,-1.71284767108238,-4.8195679123795e-05,0.584610647267487
88.3125,-1.60467852931099,-0.000130088767848298,0.858849050996529
88.375,-1.45699089330824,-0.000189082517514702,1.11193974170616
88.4375,-1.27342272829313,-0.000220137235390255,1.33765078499549
88.5,-1.05849634522893,-0.000221326340185023,1.53042442438311
88.5625,-0.817506656421986,-0.000193946825138314,1.68551393196954
88.625,-0.556390321145332,-0.000142287764152182,1.79910048881205
88.6875,-0.281579086643229,-7.31165304995128e-05,1.86838721700078
88.75,0.000158979173209989,5.04269495744293e-06,1.89166804804392
88.8125,0.281886382243046,8.27642204465455e-05,1.86836973180304
88.875,0.556667069275094,0.000150642899545924,1.79906595160653
88.9375,0.817737049387622,0.000200220475524851,1.68546319801656
89,1.05867059618054,0.000224851496332445,1.53035874912762
89.0625,1.27353799789893,0.000220435742314931,1.33757179209793
89.125,1.45705105436122,0.00018593547810562,1.11184938196049
89.1875,1.60469282944356,0.000123596141300784,0.858749553337921
89.25,1.71282854771895,3.88076480641068e-05,0.584504463238267
89.3125,1.77879496507386,-6.04148140351366e-05,0.295866934799388
89.375,1.80096603874038,-0.000164290731127208,-5.58194356163888e-05
89.4375,1.77879326598515,-0.00026236907520487,-0.295977200464047
89.5,1.71281964645178,-0.000344701250022636,-0.584610642866701
89.5625,1.60466684345552,-0.000402918355234928,-0.858849034061822
89.625,1.45699576466237,-0.000431063322180051,-1.1119397149029
89.6875,1.27344143965593,-0.000426086651295971,-1.33765075253526
89.75,1.05852372450778,-0.000387986619844079,-1.5304243913273
89.8125,0.817535992103476,-0.000319637878843379,-1.68551390339335
89.875,0.556414550093027,-0.000226389733749158,-1.7991004689742
89.9375,0.28159204403944,-0.000115522323214032,-1.86838720866172
90,-0.000161468638574215,4.36827059664785e-06,-1.89166805204763
90.0625,-0.281905764717448,0.000124013512709838,-1.86836974699181
90.125,-0.55670180443332,0.000234128504762793,-1.79906597507531
90.1875,-0.817782881291672,0.000326078813210546,-1.68546322565604
90.25,-1.05872130497247,0.00039255299063742,-1.53035877635342
90.3125,-1.27358649996026,0.000428215993561618,-1.33757181463501
90.375,-1.4570906566346,0.000430288797060041,-1.11184939654644
90.4375,-1.60471841578701,0.000398970697417465,-0.858749558224989
90.5,-1.71283748657027,0.000337606900955243,-0.584504458414824
90.5625,-1.77878757659088,0.000252517126029514,-0.295866921904674
90.625,-1.80094553752801,0.000152445864381939,5.58374821759688e-05
90.6875,-1.77876518881976,4.76646590848984e-05,0.295977220041846
90.75,-1.7127908664449,-5.11674599877705e-05,0.58461066033187
90.8125,-1.60464434629317,-0.000134221656620637,0.858849046406233
90.875,-1.45698540542143,-0.000193611576476434,1.11193972027486
90.9375,-1.27344690234469,-0.000224240759711028,1.33765075053361
91,-1.05854587013442,-0.000224283485906367,1.53042438302059
91.0625,-0.817572711284269,-0.000195268254149881,1.68551389106584
91.125,-0.556461145630966,-0.000141795606670247,1.79910045564611
91.1875,-0.281642073964161,-7.09623450846609e-05,1.86838719747516
91.25,0.000115039229049214,8.42030312689383e-06,1.89166804563353
91.3125,0.281869309315857,8.67299032325378e-05,1.86836974693604
91.375,0.556679902083096,0.000154483471675984,1.79906598158788
91.4375,0.817777506127918,0.000203270467712139,1.68546323750815
91.5,1.05873148140158,0.000226604526750059,1.53035879109888
91.5625,1.27360848323478,0.000220624814118595,1.33757182907806
91.625,1.45711860516331,0.000184571061756544,1.1118494073686
91.6875,1.60474543456503,0.000120957632746134,0.85874956265444
91.75,1.71285685588082,3.53908215267964e-05,0.584504454809007
91.8125,1.77879394792058,-6.398511720848e-05,0.295866910129299
91.875,1.80093588489655,-0.000167368071135209,-5.58559517078172e-05
91.9375,1.77873934718524,-0.000264395268903332,-0.295977242324532
92,1.71275156181775,-0.000345300609172715,-0.584610682620578
92.0625,1.60459671191542,-0.000401961148867805,-0.85884906463555
92.125,1.4569360691962,-0.000428688611807673,-1.11193973085847
92.1875,1.27340280675731,-0.000422681249320963,-1.33765075103776
92.25,1.05851303378872,-0.000384123560404495,-1.53042437264742
92.3125,0.817555152289946,-0.00031598354887028,-1.68551387085833
92.375,0.556460159182617,-0.000223593240743074,-1.79910042837508
92.4375,0.281655994173368,-0.000114103603640124,-1.86838716722183
92.5,-9.05490556027609e-05,4.11386718179425e-06,-1.89166801713801
92.5625,-0.281840488065987,0.000122077287745329,-1.86836972482039
92.625,-0.556653779900677,0.000230803707013322,-1.79906596958381
92.6875,-0.817760649088889,0.000321922133427358,-1.68546323781993
92.75,-1.05872881637823,0.000388294256137463,-1.53035880400881
92.8125,-1.27362241379803,0.000424628581199673,-1.33757185286413
92.875,-1.45714857755694,0.000428043154915056,-1.11184943855187
92.9375,-1.60478803212387,0.000398499862990385,-0.858749596536927
93,-1.71290640533053,0.000339013472487685,-0.584504486220076
93.0625,-1.77884352902532,0.000255544429043282,-0.295866934257196
93.125,-1.80097856262091,0.000156522769167671,5.58427820394614e-05
93.1875,-1.7787694059673,5.20166402414464e-05,0.295977242054101
93.25,-1.71276552173258,-4.7364322909848e-05,0.584610695143739
93.3125,-1.60459394616443,-0.000131677358285024,0.858849087827741
93.375,-1.45691891406981,-0.000192784937056737,1.11193976093794
93.4375,-1.27337614588029,-0.000225256577794074,1.33765078320333
93.5,-1.05848343175959,-0.00022691891825611,1.53042440188341
93.5625,-0.817529692220422,-0.000199007348772058,1.68551389276387
93.625,-0.556445190284319,-0.000145936828486012,1.79910043987635
93.6875,-0.281656010624996,-7.47547238204788e-05,1.8683871670439
93.75,7.37005303496857e-05,5.63983142035425e-06,1.89166800595714
93.8125,0.28180793275786,8.5422742787404e-05,1.86836970507669
93.875,0.556609415097626,0.000154837229856476,1.799065944996
93.9375,0.817710454963844,0.000205177626492122,1.68546321269562
94,1.05867979918915,0.000229692048786262,1.53035878247981
94.0625,1.27358136753615,0.000224326862312445,1.33757183818265
94.125,1.45712088241653,0.000188230988414717,1.11184943257235
94.1875,1.60477670217489,0.000123941707793953,0.858749599467601
94.25,1.71291155439692,3.71950373091704e-05,0.584504496676717
94.3125,1.77886235035697,-6.36522856840844e-05,0.29586694959938
94.375,1.80100582718201,-0.000168539931704494,-5.58259025251195e-05
94.4375,1.77879839196655,-0.00026684492774564,-0.295977227040665
94.5,1.71278921079315,-0.000348582106510358,-0.584610684817568
94.5625,1.6046062732473,-0.000405486043029497,-0.858849083917542
94.625,1.45691584788012,-0.00043182497162815,-1.11193976378999
94.6875,1.27335640621035,-0.000424859149084795,-1.33765079175611
94.75,1.05844871496658,-0.000384930886813175,-1.53042441390652
94.8125,0.817484364253514,-0.000315237738733811,-1.68551390531819
94.875,0.556395502411507,-0.000221377845716737,-1.7991004499071
94.9375,0.281608978857989,-0.000110762917743606,-1.86838717199841
95,-0.000111550978581389,8.02360372078732e-06,-1.89166800431225
95.0625,-0.281831732753203,0.000125875444960564,-1.86836969667578
95.125,-0.556616818145003,0.000233800253207,-1.79906593112724
95.1875,-0.817702050812466,0.000323542442890938,-1.68546319589113
95.25,-1.05865900192513,0.000388191670177936,-1.53035876606428
95.3125,-1.27355379985354,0.000422761724467412,-1.33757182565171
95.375,-1.45709336757143,0.000424698973731475,-1.11184942691125
95.4375,-1.60475604449215,0.000394252568855236,-0.858749602539752
95.5,-1.71290332594788,0.000334622819221773,-0.584504508800799
95.5625,-1.77886989935017,0.000251811130058946,-0.295866969402235
95.625,-1.80102968343807,0.000154130417308195,5.58013215830044e-05
95.6875,-1.77883617398569,5.13944795723696e-05,0.295977201651875
95.75,-1.71283605002522,-4.61270762090503e-05,0.584610662986964
95.8125,-1.60465567988481,-0.000128846652837049,0.858849069638387
95.875,-1.45696086473352,-0.000188924047217463,1.11193975995443
95.9375,-1.27339084648165,-0.000221109583935176,1.33765079960318
96,-1.05846826481467,-0.000223262203720569,1.53042443275024
96.0625,-0.817487354574232,-0.000196501048323539,1.68551393260607
96.125,-0.556383212245372,-0.000145005735848623,1.79910048160388
96.1875,-0.281585415295585,-7.55196678040872e-05,1.86838720323072
96.25,0.000140358936978625,3.37088976183627e-06,1.89166803016322
96.3125,0.281858802466862,8.2106658100061e-05,1.86836971299515
96.375,0.556635454841316,0.000151103327186871,1.79906593521971
96.4375,0.81770704169369,0.000201710107327786,1.6854631869677
96.5,1.05864754965399,0.000227108659649151,1.53035874538243
96.5625,1.27352602780871,0.000223074209872106,1.33757179632089
96.625,1.45705230519541,0.000188512875731797,1.11184939339735
96.6875,1.60470709386573,0.000125690811612347,0.85874956995037
96.75,1.71285330377394,4.009100246377e-05,0.584504482066797
96.8125,1.77882582496478,-6.01227722461894e-05,0.29586695249212
96.875,1.80099752934847,-0.000164992250154518,-5.58060269821303e-05
96.9375,1.77881980234436,-0.000263890779146744,-0.295977193724633
97,1.71283652509278,-0.000346726801889708,-0.584610643992759
97.0625,1.60467107899522,-0.000405045423140518,-0.858849042849733
97.125,1.45698662086782,-0.000432874493825931,-1.11193972978632
97.1875,1.27342056051249,-0.000427221987249791,-1.33765077086407
97.25,1.05849484192842,-0.000388205880441406,-1.53042440983951
97.3125,0.817504262195221,-0.000318862660394971,-1.68551391879622
97.375,0.556385635968706,-0.000224719105183889,-1.79910047852907
97.4375,0.281571108277189,-0.00011321943423914,-1.86838721067053
97.5,-0.00017068266001796,6.91712921844955e-06,-1.8916680461547
97.5625,-0.281901599129241,0.000126361992237009,-1.86836973424612
97.625,-0.556684982195302,0.000235846401613355,-1.79906595774385
97.6875,-0.817756377856893,0.000326829456708066,-1.6854632068207
97.75,-1.05868981902093,0.000392158312760338,-1.53035875936307
97.8125,-1.27355561730788,0.000426696309512555,-1.33757180251079
97.875,-1.45706585608981,0.000427867536623618,-1.11184939144497
97.9375,-1.60470409392616,0.000396040257097768,-0.858749561054285
98,-1.71283617508758,0.000334659635368904,-0.584504468673709
98.0625,-1.77879949161682,0.000250053585475542,-0.29586693777087
98.125,-1.80096854119535,0.000150878512281753,5.58188293690032e-05
98.1875,-1.77879516992063,4.72374528213183e-05,0.295977201919111
98.25,-1.71282247236238,-5.04260888429058e-05,0.584610645963068
98.3125,-1.60467193582526,-0.000132502235729894,0.858849038348928
98.375,-1.45700405279991,-0.000191283158324644,1.11193971996428
98.4375,-1.27345327368909,-0.000221776072468953,1.33765075802678
98.5,-1.05853881636917,-0.000222166145363415,1.53042439698596
98.5625,-0.817553472098299,-0.00019390128988059,1.68551390901885
98.625,-0.556433128344607,-0.000141428908533425,1.79910047439175
98.6875,-0.281610246829568,-7.16515491885992e-05,1.86838721367697
98.75,0.000145031200850266,6.81788138667357e-06,1.89166805640759
98.8125,0.281892148620491,8.4523759409985e-05,1.86836975036507
98.875,0.556691544435832,0.000152090255906962,1.79906597706268
98.9375,0.817775899482955,0.000201137703132113,1.68546322583612
99,1.05871693051357,0.00022513117718749,1.53035877435989
99.0625,1.27358359505478,0.000220092038641395,1.33757181025312
99.125,1.45708782488241,0.000185094472250681,1.1118493898094
99.1875,1.60471425486786,0.000122468749318555,0.858749549486009
99.25,1.71283084003345,3.7650593291453e-05,0.584504448372747
99.3125,1.77877774038515,-6.13432927248781e-05,0.295866911567883
99.375,1.80093238537055,-0.000164773576907911,-5.58468977572835e-05
99.4375,1.77874919491354,-0.000262265391694182,-0.295977227269993
99.5,1.7127730218785,-0.000343968910067159,-0.584610664246787
99.5625,1.6046259837281,-0.000401621513883747,-0.858849046212932
99.625,1.45696796243587,-0.000429364136149096,-1.1119397156651
99.6875,1.27343166452097,-0.000424222364641771,-1.33765074177523
99.75,1.05853373886692,-0.000386234763978438,-1.53042437096136
99.8125,0.817564037575451,-0.000318273719221032,-1.68551387704675
99.875,0.556455660248442,-0.000225641359182308,-1.79910044133525
99.9375,0.281638927866781,-0.00011552983848666,-1.86838718464749
100,-0.000117129662186597,3.58244449620022e-06,-1.89166803592962
100.0625,-0.28187183666656,0.000122556692166313,-1.8683697416362
100.125,-0.556684301365248,0.000232227527837955,-1.79906598143382
100.1875,-0.817784895086373,0.000324046433165008,-1.68546324259683
100.25,-1.05874245503552,0.00039073447791464,-1.53035880086277
100.3125,-1.27362300077571,0.000426924557850899,-1.33757184235372
100.375,-1.45713599122321,0.000429742397185577,-1.11184942254433
100.4375,-1.6047644952858,0.000399244290188344,-0.858749577877802
100.5,-1.71287608959942,0.000338612207984576,-0.58450446822692
100.5625,-1.77881181223703,0.000254016510440131,-0.295866920129968
100.625,-1.80095107154204,0.000154099018509464,5.58505293221101e-05
100.6875,-1.77875101476836,4.90985999776691e-05,0.295977242041258
100.75,-1.7127594845722,-5.02806812551098e-05,0.584610687371198
100.8125,-1.60460131830637,-0.000134097208892973,0.858849073675733
100.875,-1.45693836452091,-0.000194309171116155,1.1119397429227
100.9375,-1.27340419477883,-0.00022565575135001,1.33765076453021
101,-1.05851507010436,-0.000226172203368875,1.5304243858752
101.0625,-0.817559273495258,-0.000197300248702525,1.68551388227003
101.125,-0.556467435208614,-0.00014362018421091,1.7991004367652
101.1875,-0.281666946228564,-7.22748867014143e-05,1.86838717186935
101.25,7.6034518835189e-05,7.82518539879986e-06,1.89166801785983
101.3125,0.281823135739553,8.69272737469614e-05,1.86836972193714
101.375,0.556634797418047,0.000155412681969539,1.79906596381211
101.4375,0.817741516787462,0.000204753949831321,1.6854632301179
101.5,1.05871103115818,0.000228385167701823,1.53035879540752
101.5625,1.27360723077848,0.000222413842972416,1.33757184431674
101.625,1.45713679363586,0.000186097626031102,1.11184943082386
101.6875,1.60477984869319,0.000122011980756649,0.858749590151217
101.75,1.71290139426851,3.58548578876946e-05,0.584504481453572
101.8125,1.77884070865954,-6.41236103358131e-05,0.295866931181123
101.875,1.80097657136937,-0.000168018487132576,-5.58442370591772e-05
101.9375,1.77876674399479,-0.000265382852844979,-0.295977242029942
102,1.71276081831154,-0.000346397064565737,-0.584610693796002
102.0625,1.60458620500036,-0.000402922242409553,-0.858849085290891
102.125,1.45690769197415,-0.000429293439952966,-1.11193975731733
102.1875,1.27336163164403,-0.00042276806853122,-1.33765077859169
102.25,1.0584664100439,-0.000383617659066051,-1.53042439639424
102.3125,0.817511398492486,-0.000314913341507419,-1.68551388657432
102.375,0.556427083241437,-0.000222091620754843,-1.79910043326564
102.4375,0.281639504153492,-0.000112392844007583,-1.86838716041857
102.5,-8.74961491998842e-05,5.75344749538665e-06,-1.89166799985276
102.5625,-0.281818412502613,0.000123352002748531,-1.86836970012907
102.625,-0.55661658676874,0.000231458540623728,-1.79906594187909
102.6875,-0.817714933561368,0.00032179133802492,-1.6854632120297
102.75,-1.05868269025438,0.000387340158965688,-1.53035878472022
102.8125,-1.27358406208466,0.000422958849520806,-1.33757184350784
102.875,-1.45712480193449,0.000425900028986724,-1.11184944079174
102.9375,-1.60478304052248,0.000396220522427583,-0.858749609975085
103,-1.71292106307381,0.000336967613691574,-0.584504508466929
103.0625,-1.77887520486109,0.000254061447998535,-0.29586696135573
103.125,-1.80102159706102,0.000155824641628507,5.58156516792252e-05
103.1875,-1.77881611856546,5.21722184366764e-05,0.295977219718111
103.25,-1.71280757797778,-4.64525589099068e-05,0.584610681576767
103.3125,-1.6046238406571,-0.000130250859373024,0.858849085444027
103.375,-1.45693130597974,-0.000191176403624878,1.11193977016257
103.4375,-1.27336880903203,-0.000223819559514475,1.33765080239607
103.5,-1.05845765034225,-0.000225955797766664,1.53042442762944
103.5625,-0.817490031829762,-0.000198711208801089,1.68551392048198
103.625,-0.556398685184136,-0.000146358482939642,1.79910046463429
103.6875,-0.281610911967015,-7.57998292897912e-05,1.86838718443617
103.75,0.000109392734312033,4.18538204399519e-06,1.89166801288932
103.8125,0.281827892726177,8.38464392564282e-05,1.86836970031641
103.875,0.556610116319921,0.000153443157660565,1.79906592939194
103.9375,0.817691797154818,0.000204230627500626,1.68546318902635
104,1.05864512573894,0.000229372724107069,1.53035875495845
104.0625,1.27353687044668,0.000224704287283152,1.33757181170728
104.125,1.45707450063109,0.000189256226315335,1.11184941185381
104.1875,1.60473670928258,0.000125461424093355,0.858749588190981
104.25,1.71288508691615,3.89813250923003e-05,0.584504496846286
104.3125,1.77885413835658,-6.18619542815269e-05,0.295866961182786
104.375,1.80101735300651,-0.000166999696899433,-5.58049689057816e-05
104.4375,1.77882762669006,-0.000265761287319889,-0.295977200483533
104.5,1.71283097527041,-0.000348083909705295,-0.584610657362817
104.5625,1.60465315953389,-0.000405607253363808,-0.858849060450163
104.625,1.45695953711739,-0.000432501608311531,-1.11193974848476
104.6875,1.27338914854464,-0.000425940023773328,-1.33765078733442
104.75,1.05846470824445,-0.000386200465361653,-1.53042442115363
104.8125,0.817480786232371,-0.000316448542751078,-1.68551392294327
104.875,0.556373012851153,-0.000222288953650859,-1.79910047477328
104.9375,0.281571602151676,-0.000111180101174441,-1.86838719968151
105,-0.000157141783664024,8.21169060878134e-06,-1.89166802988758
105.0625,-0.281877403201462,0.000126671388140646,-1.86836971559418
105.125,-0.556654419684053,0.000235088496220386,-1.79906594002401
105.1875,-0.817724870674571,0.000325100873547849,-1.68546319318416
105.25,-1.05866295758855,0.000389725232868981,-1.53035875223555
105.3125,-1.27353816550639,0.000423954386914343,-1.33757180316071
105.375,-1.45706090325677,0.000425275370311056,-1.11184939975815
105.4375,-1.60471250490778,0.000394036823035265,-0.858749575554406
105.5,-1.71285643629411,0.000333580888976341,-0.58450448678302
105.5625,-1.7788279805026,0.000250065436072857,-0.295866956268795
105.625,-1.80100017116211,0.000151941364436563,5.58032333745073e-05
105.6875,-1.77882429577446,4.91114144307494e-05,0.295977192000771
105.75,-1.71284389506655,-4.81351462010564e-05,0.58461064348922
105.8125,-1.60468182764782,-0.000130264974112948,0.858849043761936
105.875,-1.45700063819222,-0.000189553895588658,1.11193973230278
105.9375,-1.27343714479032,-0.000220904353336479,1.33765077509674
106,-1.05851282712785,-0.000222330791255569,1.53042441574985
106.0625,-0.817522230023049,-0.000195079369844336,1.68551392613695
106.125,-0.556402174473671,-0.000143404230577567,1.79910048681725
106.1875,-0.281585069912925,-7.40592067746419e-05,1.86838721919823
106.25,0.000159970914646474,4.42094672697511e-06,1.89166805404261
106.3125,0.281894212407338,8.25762570512282e-05,1.86836974053624
106.375,0.556680383997121,0.000150947356839827,1.79906596152126
106.4375,0.817753518466048,0.000201008942767407,1.68546320735003
106.5,1.05868732782649,0.00022604567200152,1.53035875621993
106.5625,1.27355205347389,0.000221896287141087,1.33757179568736
106.625,1.45705997147161,0.000187482408056246,1.11184938140831
106.6875,1.60469506026254,0.000125038229709342,0.85874954874111
106.75,1.71282373449649,3.99759482926439e-05,0.58450445541305
106.8125,1.77878400378839,-5.96358516805841e-05,0.295866925137161
106.875,1.80095091957522,-0.000163941330448468,-5.58292167706642e-05
106.9375,1.77877671905524,-0.000262406709615465,-0.295977208624319
107,1.71280465587771,-0.000345010035687002,-0.584610647953282
107.0625,1.60465611630556,-0.000403333752223992,-0.858849035169125
107.125,1.45699124929033,-0.000431407031338438,-1.11193971183308
107.1875,1.27344397913582,-0.000426204215091184,-1.33765074583395
107.25,1.05853290678955,-0.000387779702949775,-1.53042438218703
107.3125,0.817550223485296,-0.000319084576996385,-1.68551389344106
107.375,0.556431338869097,-0.000225549068309573,-1.7991004599817
107.4375,0.281608443808248,-0.000114522536567892,-1.86838720222984
107.5,-0.00014833488861867,5.35473050311526e-06,-1.89166804932126
107.5625,-0.28189819295776,0.000124803001480808,-1.86836974845586
107.625,-0.556701101349081,0.000234560655747364,-1.7990659804685
107.6875,-0.817789132001078,0.000326046034821202,-1.68546323401762
107.75,-1.0587333579791,0.00039201977494596,-1.53035878619458
107.8125,-1.27360217198831,0.000427224887582166,-1.33757182420393
107.875,-1.45710712091462,0.00042895238913877,-1.11184940414048
107.9375,-1.60473270475318,0.000397451483045641,-0.858749562493488
108,-1.7128470195915,0.000336088999810709,-0.584504458599544
108.0625,-1.77879061890152,0.000251175165691809,-0.295866917974121
108.125,-1.8009415087465,0.000151416679345033,5.58448274855516e-05
108.1875,-1.77875476617735,4.70267075693455e-05,0.295977229494205
108.25,-1.71277586434526,-5.14037240926845e-05,0.584610670209355
108.3125,-1.60462739360029,-0.000134111419121544,0.858849054951792
108.375,-1.45696947785529,-0.000193262483160897,1.11193972596913
108.4375,-1.27343479314874,-0.0002237918369871,1.33765075236467
108.5,-1.05853969317654,-0.000223880037775587,1.53042438066384
108.5625,-0.817573524999397,-0.000195036769105725,1.68551388494125
108.625,-0.556468764728096,-0.000141822266080477,1.79910044684367
108.6875,-0.281655102421339,-7.12779703734051e-05,1.86838718756076
108.75,9.8959732720397e-05,7.84687610509998e-06,1.89166803637063
108.8125,0.281853079724308,8.59889150820984e-05,1.86836973997214
108.875,0.556666449721353,0.000153711672424642,1.7990659781618
108.9375,0.817769263771165,0.000202629962262943,1.6854632382297
109,1.05872995437771,0.000226255519409426,1.53035879584052
109.0625,1.2736139816186,0.000220696205553448,1.33757183699733
109.125,1.45713018873246,0.000185133998828501,1.11184941705778
109.1875,1.60476108030538,0.000122007459793806,0.858749572390616
109.25,1.71287381820116,3.68420234302018e-05,0.584504462860219
109.3125,1.77880924742389,-6.2288576500244e-05,0.295866915062443
109.375,1.80094683867402,-0.000165627809614533,-5.58550155087545e-05
109.4375,1.77874404622413,-0.00026282320422816,-0.295977245553286
109.5,1.71274921055821,-0.000344080336889378,-0.584610689441532
109.5625,1.60458776956164,-0.000401214146814815,-0.858849073836175
109.625,1.45692216770095,-0.000428452585957789,-1.11193974080238
109.6875,1.27338646015641,-0.000422905260209508,-1.3376507599553
109.75,1.05849719068305,-0.000384680798745342,-1.53042437895153
109.8125,0.817542671150185,-0.000316698772481713,-1.68551387342701
109.875,0.556453299838804,-0.000224278889089604,-1.79910042675105
109.9375,0.281656015925757,-0.000114597090864842,-1.86838716169461
110,-8.36112696030223e-05,3.91903375443659e-06,-1.89166800869197
110.0625,-0.281827829699145,0.000122212321519177,-1.86836971495943
110.125,-0.556637614000784,0.000231220472906983,-1.79906596006329
110.1875,-0.817743812561004,0.000322504402118645,-1.68546323033392
110.25,-1.05871426533733,0.000388881661001147,-1.53035879988884
110.3125,-1.27361269774881,0.000425048442215981,-1.33757185284193
110.375,-1.45714538589585,0.000428144062905743,-1.11184944262945
110.4375,-1.60479189360292,0.000398180771801432,-0.858749603987447
110.5,-1.71291659393536,0.000338243038441543,-0.584504495716328
110.5625,-1.77885819302826,0.000254367291417941,-0.29586694410872
110.625,-1.80099505388736,0.000155052019027763,5.58343275083861e-05
110.6875,-1.77878475097598,5.04143639516895e-05,0.295977236500347
110.75,-1.71277695054968,-4.89143796410722e-05,0.584610693477973
110.8125,-1.60459938528095,-0.000132999745806691,0.858849090344647
110.875,-1.45691735541454,-0.000193739763357635,1.11193976718884
110.9375,-1.27336782632828,-0.000225759758043446,1.33765079207573
111,-1.0584697911573,-0.000226952747694751,1.53042441179842
111.0625,-0.81751311735339,-0.000198620546742799,1.68551390195813
111.125,-0.556428590307461,-0.000145234762869112,1.79910044671479
111.1875,-0.281642299481143,-7.38816470484405e-05,1.86838717031062
111.25,8.2122608001367e-05,6.52398549157407e-06,1.89166800507147
111.3125,0.28180960638215,8.61679832743906e-05,1.86836970019632
111.375,0.556604081470552,0.000155328190328872,1.79906593698887
111.4375,0.817699101978958,0.000205353723512177,1.68546320298577
111.5,1.05866448567064,0.000229559618794714,1.5303587727941
111.5625,1.27356485688818,0.000223960411027179,1.33757183024446
111.625,1.45710615088925,0.000187762073487517,1.11184942779421
111.6875,1.60476640927827,0.000123536108547812,0.858749598700557
111.75,1.71290756972934,3.70214225986687e-05,0.584504500058699
111.8125,1.77886542106298,-6.34566222379874e-05,0.295866956529851
111.875,1.80101544520316,-0.000167899299515246,-5.58166556828832e-05
111.9375,1.77881288466806,-0.000265764635120246,-0.295977217122539
112,1.71280603877939,-0.000347152173746475,-0.584610675993252
112.0625,1.60462248230766,-0.0004038677264831,-0.858849077758321
112.125,1.4569285945991,-0.00043022248450384,-1.11193976139331
112.1875,1.27336346370529,-0.000423482351808584,-1.33765079354979
112.25,1.05844886879815,-0.0003839567088782,-1.53042441957238
112.3125,0.817477628135742,-0.000314778232080405,-1.68551391384835
112.375,0.556383115431101,-0.000221461138236659,-1.7991004597836
112.4375,0.28159318478061,-0.000111330453151478,-1.86838718146342
112.5,-0.000127902996280351,7.10354277861765e-06,-1.89166801168128
112.5625,-0.281845694997539,0.000124781086494884,-1.86836970063768
112.625,-0.556625868587296,0.000232722048623231,-1.79906593097772
112.6875,-0.817704541552864,0.000322647804317438,-1.6854631916579
112.75,-1.05865445212524,0.000387595296045956,-1.53035875850179
112.8125,-1.27354298109643,0.000422506811883135,-1.33757181610655
112.875,-1.45707816648675,0.000424752449455041,-1.11184941708232
112.9375,-1.6047391270789,0.000394514793367573,-0.858749594175352
113,-1.71288766328433,0.000334949505661544,-0.584504503388105
113.0625,-1.77885823903333,0.000252042975576189,-0.295866967902615
113.125,-1.80102406076116,0.000154124615900542,5.57986430640423e-05
113.1875,-1.77883754981172,5.10521571734808e-05,0.295977195273273
113.25,-1.71284413979689,-4.68423720486918e-05,0.584610654044156
113.3125,-1.60466900422091,-0.000129902251080034,0.858849059722952
113.375,-1.45697701264242,-0.000190223654061744,1.11193975083019
113.4375,-1.27340690438594,-0.00022250917964986,1.33765079289268
113.5,-1.0584813350622,-0.000224592991791515,1.53042442964664
113.5625,-0.81749507116788,-0.000197595452996387,1.68551393366077
113.625,-0.556384162000017,-0.000145722553022109,1.79910048662887
113.6875,-0.281579389446553,-7.57650572094099e-05,1.86838721133193
113.75,0.000152327482051416,3.62912942349359e-06,1.89166803989983
113.8125,0.281874622890389,8.28333334628958e-05,1.86836972263549
113.875,0.556652350504945,0.00015219964559431,1.79906594304935
113.9375,0.817722044334111,0.000203027133963596,1.68546319159389
114,1.05865802771807,0.000228469343341561,1.53035874598188
114.0625,1.27353015487288,0.000224301402307181,1.33757179278646
114.125,1.45704938507605,0.000189459234116933,1.11184938635679
114.1875,1.60469768454301,0.000126265323711792,0.858749560655145
114.25,1.71283911807482,4.02766260103413e-05,0.584504472170366
114.3125,1.77880942570267,-6.02648141140572e-05,0.295866943755131
114.375,1.80098187321179,-0.000165333586804492,-5.58120497408665e-05
114.4375,1.77880771374384,-0.000264261191097345,-0.295977195960053
114.5,1.71283019362628,-0.000346949080394487,-0.584610642042269
114.5625,1.60467166995554,-0.000404972670746372,-0.858849037059724
114.625,1.4569940680681,-0.000432421901761024,-1.11193972118641
114.6875,1.2734335782338,-0.000426386219882961,-1.3376507609852
114.75,1.05851115379362,-0.00038706793402421,-1.5304244004406
114.8125,0.817521006189396,-0.000317573695307651,-1.6855139115506
114.875,0.556399873519416,-0.000223472350624606,-1.79910047472704
114.9375,0.281580346838057,-0.000112214012874868,-1.86838721098906
115,-0.00016804644166063,7.51322564716819e-06,-1.89166805053681
115.0625,-0.281905994428523,0.000126442673858623,-1.86836974191135
115.125,-0.556695587838241,0.000235386364093985,-1.79906596732736
115.1875,-0.817771268465444,0.000325887967107305,-1.68546321661661
115.25,-1.05870630746616,0.000390867572876547,-1.53035876762814
115.3125,-1.27357073257706,0.000425236906688547,-1.33757180777491
115.375,-1.45707687160795,0.000426435799918282,-1.11184939277247
115.4375,-1.60470901240232,0.000394813728617492,-0.858749558210442
115.5,-1.71283408367669,0.000333767089326149,-0.584504462165795
115.5625,-1.7787907242331,0.000249555019758275,-0.295866928757637
115.625,-1.80095461909363,0.000150758474528928,5.58287440580729e-05
115.6875,-1.77877853108914,4.74123637584454e-05,0.295977210971725
115.75,-1.71280603783549,-5.00886907494882e-05,0.584610652543879
115.8125,-1.6046585900454,-0.000132156755139382,0.858849041288584
115.875,-1.45699613046559,-0.000191076633254678,1.11193971874107
115.9375,-1.27345214439157,-0.000221821712988056,1.33765075285944
116,-1.05854464093721,-0.000222523841753094,1.53042438879428
116.0625,-0.817565174026684,-0.000194567572671467,1.68551389926027
116.125,-0.556448585410193,-0.000142337155623258,1.79910046480213
116.1875,-0.281626668808728,-7.26818378520013e-05,1.86838720596194
116.25,0.000130605929677236,5.82088886425737e-06,1.89166805193941
116.3125,0.281882325975205,8.37272256321005e-05,1.86836974993873
116.375,0.556688110854232,0.000151646790620495,1.79906598075453
116.4375,0.817779504029361,0.000201159653804984,1.68546323299017
116.5,1.05872696945706,0.000225669449050944,1.53035878370429
116.5625,1.2735983194603,0.000221123328498893,1.33757182012627
116.625,1.45710465204676,0.000186520130907965,1.11184939845505
116.6875,1.60473022813606,0.00012412691796312,0.858749555365599
116.75,1.71284315511562,3.93408542070464e-05,0.584504450439209
