time,ax,ay,az
0,-4.91371237859686e-05,4.47107794480677e-07,-0.633137023309599
0.0625,-0.0939480383225245,1.98587119087113e-05,-0.625209083826931
0.125,-0.185534603604402,3.79404300787564e-05,-0.601585208438707
0.1875,-0.27255543614656,5.34898652509517e-05,-0.562924163760763
0.25,-0.352869084462118,6.55201155760745e-05,-0.510286461625274
0.3125,-0.424498543047931,7.33450393809074e-05,-0.445090959045298
0.375,-0.485679828789656,7.66367524681594e-05,-0.369060943478332
0.4375,-0.534905456190425,7.54494133799825e-05,-0.284164017779653
0.5,-0.570961733861254,7.02065445838709e-05,-0.192549898162532
0.5625,-0.592958932496793,6.16527914387796e-05,-0.0964896166537676
0.625,-0.600353531290988,5.07747540166277e-05,0.0016813641343469
0.6875,-0.592961934913751,3.86988915229213e-05,0.0996147856242363
0.75,-0.570965263975617,2.65770503732108e-05,0.194995799654885
0.8125,-0.534905053030892,1.54715475351507e-05,0.285584537604347
0.875,-0.485669933916765,6.25175497086575e-06,0.369254465686016
0.9375,-0.424473629072933,-4.872142203187e-07,0.444029161810452
1,-0.352824818939173,-4.47561902035905e-06,0.508118927210602
1.0625,-0.272489669164359,-5.78521438596483e-06,0.559958046491352
1.125,-0.185447997888063,-4.80929921576093e-06,0.598242649206033
1.1875,-0.0938442235271471,-2.20928565408191e-06,0.621968160584827
1.25,6.56452746004166e-05,1.16629881348412e-06,0.630464429286104
1.3125,0.0939696352945252,4.38179307962359e-06,0.623425944440534
1.375,0.185556666795174,6.52295447598411e-06,0.600934224844227
1.4375,0.272573256362018,6.80282143458065e-06,0.563469547574192
1.5,0.352878704402447,4.65385639027242e-06,0.511909685518123
1.5625,0.424497461817191,-2.03325795423406e-07,0.447514184232328
1.625,0.485667447640934,-7.7219556552738e-06,0.371893816109692
1.6875,0.534883186089811,-1.75258962986581e-05,0.286966056859851
1.75,0.570932745602526,-2.89414914727416e-05,0.194898576070658
1.8125,0.592927593683268,-4.10608603003896e-05,0.0980436717949779
1.875,0.600324630216091,-5.28295619747962e-05,-0.00113280677518159
1.9375,0.59293982930482,-6.31490056570292e-05,-0.100124281051646
2,0.570953105965716,-7.09827041971206e-05,-0.196454418566918
2.0625,0.534904228205235,-7.54555993274597e-05,-0.287743201904362
2.125,0.485679814245,-7.59370956888846e-05,-0.371765820070731
2.1875,0.424491683748179,-7.21007821162165e-05,-0.446503033815492
2.25,0.352847063517922,-6.39566137733811e-05,-0.510182584218872
2.3125,0.272511373249957,-5.18541037608559e-05,-0.561311998596261
2.375,0.185464525618474,-3.64574752820808e-05,-0.598703699152295
2.4375,0.0938518574905061,-1.8695594858211e-05,-0.621493579750417
2.5,-6.90431605500049e-05,3.09125474309589e-07,-0.629154175726832
2.5625,-0.093984243454047,1.93276449758152e-05,-0.621503250483767
2.625,-0.185580671886938,3.71209529442507e-05,-0.598708140734001
2.6875,-0.27260317517547,5.25395777768497e-05,-0.56128564631901
2.75,-0.352910002611058,6.46183254619269e-05,-0.510096735958292
2.8125,-0.424525359653958,7.26581710819295e-05,-0.446334973030964
2.875,-0.48568776930468,7.62873370514241e-05,-0.371507425473029
2.9375,-0.534893101884957,7.54945649854088e-05,-0.287406953028991
3,-0.570931274856754,7.06296100582695e-05,-0.196075161487206
3.0625,-0.592915779000467,6.23690316089505e-05,-0.0997559323344952
3.125,-0.600305352052669,5.16491360338351e-05,-0.00084019727819367
3.1875,-0.59291729381678,3.95719289530043e-05,0.0981965725969034
3.25,-0.570932097185043,2.72935015712812e-05,0.194861963400993
3.3125,-0.534889257525641,1.590677704814e-05,0.286716541817972
3.375,-0.485674318466724,6.33151481041266e-06,0.371443033514539
3.4375,-0.424497414294203,-7.76263497103715e-07,0.446911659323965
3.5,-0.352863775424839,-5.08556432764467e-06,0.511238794701285
3.5625,-0.272536869207188,-6.61603283066172e-06,0.562836630654614
3.625,-0.185495047170592,-5.72556758503848e-06,0.600452206320293
3.6875,-0.0938827537692122,-3.06175314934557e-06,0.623194962758673
3.75,4.24881591270976e-05,5.17363344915596e-07,0.630552735544197
3.8125,0.0939659722063423,4.04464730466845e-06,0.62239676902656
3.875,0.185573152445617,6.55682907062277e-06,0.598976827004559
3.9375,0.272606962655746,7.20737352138159e-06,0.560907752190884
4,0.352923640982409,5.36754105052089e-06,0.509148883980298
4.0625,0.424545641222141,7.04894759293105e-07,0.44497760809412
4.125,0.48571030565668,-6.7694548192625e-06,0.369958037907196
4.1875,0.534913104694813,-1.66905385616791e-05,0.285905488832542
4.25,0.570944407656443,-2.83679651129195e-05,0.194847082846824
4.3125,0.592918928431111,-4.08505958584417e-05,0.0989785818164294
4.375,0.600297181458415,-5.30206828783853e-05,0.000617449190339847
4.4375,0.592898480769156,-6.3707103309779e-05,-0.0978477929675964
4.5,0.570905212740118,-7.18049995105712e-05,-0.194011613563437
4.5625,0.53485830872458,-7.63884924015884e-05,-0.285508267710455
4.625,0.485644035466995,-7.68042950472848e-05,-0.370070237188772
4.6875,0.424472408921105,-7.27367926855587e-05,-0.445586769506758
4.75,0.352847720791624,-6.42389568199071e-05,-0.510160589342961
4.8125,0.272531846303474,-5.17276409930156e-05,-0.562160608624075
4.875,0.185501174628791,-3.59456837002734e-05,-0.600268393795724
4.9375,0.093898166663382,-1.78962978990833e-05,-0.623516283944702
5,-2.13066972372137e-05,1.24280827282524e-06,-0.631315386366801
5.0625,-0.093943565518316,2.02172521989927e-05,-0.623472175093373
5.125,-0.185554282258396,3.77973954080593e-05,-0.60019302908593
5.1875,-0.272595762100259,5.28755542429886e-05,-0.56207670283405
5.25,-0.352922879375011,6.45519997115851e-05,-0.510095351671147
5.3125,-0.424556231396025,7.22036420747974e-05,-0.44556527231842
5.375,-0.485731141491423,7.55302766799678e-05,-0.370108916276384
5.4375,-0.534941257755016,7.45744502132673e-05,-0.285609961584456
5.5,-0.570975647964478,6.97125639458716e-05,-0.194163283530016
5.5625,-0.59294847673328,6.16168850675545e-05,-0.0980215671555885
5.625,-0.600320559161518,5.1190667022165e-05,0.00045990671507553
5.6875,-0.59291230635541,3.94813713803126e-05,0.0988790430026187
5.75,-0.570907803003154,2.75796514655919e-05,0.194842301516191
5.8125,-0.53484997790817,1.65138289008027e-05,0.286018908584986
5.875,-0.485627039144862,7.15063265388255e-06,0.370193318985188
5.9375,-0.424450542660466,1.12699113026017e-07,0.445315387499745
6,-0.3528256450456,-4.27828792024887e-06,0.509547660522408
6.0625,-0.272514257654094,-6.026697119681e-06,0.561309069289956
6.125,-0.185491970797834,-5.4536647902169e-06,0.599314133808002
6.1875,-0.0938997537753573,-3.15453800626462e-06,0.622606615882978
6.25,8.44145624231577e-06,7.23424943065185e-08,0.630586438194915
6.3125,0.0939209399334094,3.31802861645183e-06,0.623028655347913
6.375,0.185525148611816,5.66701303675093e-06,0.600093350975687
6.4375,0.272564528388638,6.30238780108711e-06,0.562325553649109
6.5,0.352894325222416,4.60150079353611e-06,0.510644605765383
6.5625,0.424534658142448,2.12372507114975e-07,0.446322857898503
6.625,0.485719607601503,-6.89712774437265e-06,0.37095405597472
6.6875,0.534941035479788,-1.6422848320199e-05,0.286412291235685
6.75,0.570985997810713,-2.77430516918951e-05,0.194802842788956
6.8125,0.592966779756931,-3.99711195586392e-05,0.0984066145616652
6.875,0.600342783459183,-5.2037561267655e-05,-0.000379880877258071
6.9375,0.592933724698496,-6.27933603111573e-05,-0.0991069276978629
7,0.57092383391105,-7.112418717824e-05,-0.195334365455846
7.0625,0.534857000528122,-7.6063628944648e-05,-0.286692816028063
7.125,0.485623036995464,-7.68935706418284e-05,-0.370941737749473
7.1875,0.424435461766467,-7.32212405441219e-05,-0.446022963909199
7.25,0.352801402821716,-6.50250127823383e-05,-0.510108694341529
7.3125,0.27248440104066,-5.26644787892664e-05,-0.561643196391809
7.375,0.185461044554134,-3.68540868934897e-05,-0.599377706648747
7.4375,0.0938724913948517,-1.86033337060572e-05,-0.622398191734232
7.5,-2.79602037247639e-05,8.70327376143859e-07,-0.630145723534945
7.5625,-0.0939300149142203,2.02472925271403e-05,-0.622429263417146
7.625,-0.185522939541638,3.82202797186094e-05,-0.599430653716155
7.6875,-0.272552203935865,5.36068876077712e-05,-0.561701611947482
7.75,-0.3528748545278,6.54500343093242e-05,-0.510152543592634
7.8125,-0.424512281920691,7.30972559888994e-05,-0.446033058594152
7.875,-0.485699083007386,7.62517414558341e-05,-0.370904211781896
7.9375,-0.534926789169778,7.49904675109774e-05,-0.286602693576486
8,-0.570981337950494,6.97477367904787e-05,-0.195197466888293
8.0625,-0.592973307214492,6.12656122084029e-05,-0.0989396596482876
8.125,-0.60036010695634,5.05159319016532e-05,-0.000206851180368742
8.1875,-0.592959530585937,3.86014595246544e-05,0.09855679908615
8.25,-0.570954298114498,2.66459368416288e-05,0.194902874226966
8.3125,-0.534887469319495,1.56840549254367e-05,0.28644159136256
8.375,-0.485648855408595,6.56244477795443e-06,0.370903306083197
8.4375,-0.424452802212365,-1.38341027780401e-07,0.446196711603712
8.5,-0.352807946434357,-4.15310572228196e-06,0.510461960511214
8.5625,-0.2724797505021,-5.54783905274304e-06,0.562117175919351
8.625,-0.185446794939205,-4.70089701742188e-06,0.599897126131254
8.6875,-0.0938519464350634,-2.25188759335056e-06,0.622883182216751
8.75,5.03759401176698e-05,9.76131083162653e-07,0.630524029459799
8.8125,0.0939495433208798,4.07290492575159e-06,0.62264693255346
8.875,0.185535335654306,6.14567710993446e-06,0.599459638383473
8.9375,0.272554491334405,6.42152695746556e-06,0.561543226000296
9,0.352865855046572,4.33684646030031e-06,0.509836377788508
9.0625,0.424492825415618,-3.95219679434188e-07,0.445611655317316
9.125,0.485671859858973,-7.74627029459545e-06,0.370444431883547
9.1875,0.53489587177011,-1.73669731484891e-05,0.286175179852911
9.25,0.570951456317033,-2.86146784504917e-05,0.194865853980806
9.3125,0.592949007614945,-4.06113011387612e-05,0.0987511686842419
9.375,0.600344943234837,-5.23253436977399e-05,0.000185648763712999
9.4375,0.592955432051422,-6.26695714535905e-05,-0.0984125573270851
9.5,0.570961226428059,-7.06045150419686e-05,-0.194619979929243
9.5625,0.534903425393344,-7.52377714242159e-05,-0.286066981632831
9.625,0.485670235058014,-7.59099339624217e-05,-0.370496362103288
9.6875,0.424475037263638,-7.22596758118218e-05,-0.44581990902714
9.75,0.352826317222982,-6.42627215959056e-05,-0.510171334363856
9.8125,0.272490225224676,-5.22418485730485e-05,-0.561954046607876
9.875,0.185446746565207,-3.68474105359723e-05,-0.599882298920364
9.9375,0.0938406196823125,-1.90100372347852e-05,-0.623014422141277
10,-7.17305920771365e-05,1.30904689887817e-07,-0.630777094430394
10.0625,-0.0939778923740371,1.93177728223153e-05,-0.62297990114271
10.125,-0.185566402430223,3.72771727008929e-05,-0.599819778817937
10.1875,-0.272583516848954,5.28263802904694e-05,-0.561875291578695
10.25,-0.352888444555738,6.49745783559585e-05,-0.510091032018487
10.3125,-0.424505730038165,7.30095078708817e-05,-0.445752749592783
10.375,-0.485673554240417,7.65606740516249e-05,-0.370454070481595
10.4375,-0.534886825043413,7.56318218680882e-05,-0.286055873571992
10.5,-0.570934048184788,7.05980448285827e-05,-0.194639524813393
10.5625,-0.592927104519138,6.21664422264362e-05,-0.0984552509802114
10.625,-0.600323210060586,5.13033028662245e-05,0.000133036267415343
10.6875,-0.592938501867919,3.91348073437272e-05,0.0987051608469653
10.75,-0.570952876027883,2.68315829467179e-05,0.19484306902275
10.8125,-0.534905903352247,1.5489564575186e-05,0.286188939715911
10.875,-0.48568386188406,6.02016052307007e-06,0.37050181039652
10.9375,-0.424498148768858,-9.38380745159871e-07,0.445711540617882
11,-0.352855561154251,-5.07905008460455e-06,0.509968961772431
11.0625,-0.272521158310564,-6.44781227092769e-06,0.561691090895853
11.125,-0.185474625667084,-5.42725906859141e-06,0.599600328149639
11.1875,-0.0938612461997447,-2.68447982811876e-06,0.62275662344295
11.25,6.1263372248522e-05,9.1094807607713e-07,0.630581698414834
11.3125,0.0939786819980764,4.3900602541625e-06,0.62287455383751
11.375,0.185577542108803,6.79791122999913e-06,0.599817683086503
11.4375,0.272602257093469,7.30549153094489e-06,0.561973647747534
11.5,0.352910682802293,5.3084160177787e-06,0.51027194398051
11.5625,0.424526741072244,5.01807333791698e-07,0.445986385035233
11.625,0.48568883139419,-7.0769278052247e-06,0.370703529607648
11.6875,0.534892882444758,-1.7042449638388e-05,0.286282978954508
11.75,0.57092904128981,-2.86939503693211e-05,0.194810629576023
11.8125,0.592911158514045,-4.10823681359773e-05,0.0985461869818749
11.875,0.600298397711079,-5.31048898599995e-05,-0.000133592090081895
11.9375,0.592908474771108,-6.36160648086798e-05,-0.0987943629765967
12,0.57092221488543,-7.15430382844833e-05,-0.195004761053892
12.0625,0.534879302867069,-7.59923076203859e-05,-0.286396497784871
12.125,0.485665295299088,-7.63369809010373e-05,-0.370722482693478
12.1875,0.424490160687126,-7.2276437586478e-05,-0.44591158200724
12.25,0.35285881446345,-6.38639645415694e-05,-0.510118763544863
12.3125,0.272534315840787,-5.15016984598647e-05,-0.561769530558763
12.375,0.185494587674019,-3.5905456547928e-05,-0.59959770543135
12.4375,0.0938837014729855,-1.80444082220206e-05,-0.622675781479374
12.5,-4.10707704360085e-05,9.38067558832254e-07,-0.630437215458826
12.5625,-0.0939651067308535,1.98154357808794e-05,-0.622690185887203
12.625,-0.185573762790544,3.73740477045423e-05,-0.599622496715041
12.6875,-0.272609710590207,5.25074637748409e-05,-0.561797467101198
12.75,-0.352928808284487,6.43025892063158e-05,-0.510140820723555
12.8125,-0.424553079408004,7.21113892332149e-05,-0.44591877515659
12.875,-0.485719462257211,7.56023245915803e-05,-0.370707733534078
12.9375,-0.534923121419127,7.47864158979333e-05,-0.286356193699497
13,-0.570954272978927,7.00142646677283e-05,-0.194939707506474
13.0625,-0.592927657443381,6.19425634128821e-05,-0.0987099350164747
13.125,-0.60030399097051,5.14715378515656e-05,-3.90331808670513e-05
13.1875,-0.592902928493951,3.96580585620824e-05,0.0986392163329171
13.25,-0.570907275799914,2.76123246371997e-05,0.194890011881714
13.3125,-0.534858387535255,1.63884744770281e-05,0.286338268061289
13.375,-0.485642882351027,6.88071640730459e-06,0.370727866278463
13.4375,-0.424470994202717,-2.63692819975239e-07,0.445977845118666
13.5,-0.352847060244962,-4.70505954971897e-06,0.510234054564677
13.5625,-0.272532820679264,-6.43888049295729e-06,0.561914946337462
13.625,-0.185504373360822,-5.78764665107334e-06,0.599750360871228
13.6875,-0.0939037835168934,-3.35792118488212e-06,0.622812388220884
13.75,1.35075452033582e-05,3.25713652081011e-08,0.630537613475748
13.8125,0.0939342070234127,3.4501310687998e-06,0.622740295704016
13.875,0.185544263319516,5.952732259083e-06,0.599616263587574
13.9375,0.272586097483327,6.69919024220538e-06,0.561737533781017
14,0.352914519258576,5.04873521818235e-06,0.510037865518906
14.0625,0.424549892632056,6.40673257328733e-07,0.445789655618327
14.125,0.485727180554243,-6.55446884845179e-06,0.370572752355997
14.1875,0.534939607910249,-1.62183229761507e-05,0.286235926518287
14.25,0.570975831755189,-2.77052370145146e-05,0.194851885219038
14.3125,0.592949691485869,-4.00987891372103e-05,0.0986668501209545
14.375,0.60032182023818,-5.22990270137726e-05,4.58462814170793e-05
14.4375,0.592912622626272,-6.31315565370126e-05,-0.0985850411088071
14.5,0.570906353298889,-7.14668711515757e-05,-0.194798091313802
14.5625,0.534846257056253,-7.6336951331393e-05,-0.286223632770327
14.625,0.485620947617466,-7.70364367520397e-05,-0.370608525837336
14.6875,0.424442403905165,-7.31975660367859e-05,-0.445871976486241
14.75,0.352816147446883,-6.48312900408432e-05,-0.510157250102378
14.8125,0.272504331494081,-5.23309756253273e-05,-0.561877935493256
14.875,0.185482622160166,-3.64393108515294e-05,-0.599757535533146
14.9375,0.0938918850052611,-1.81828194946239e-05,-0.622861330327795
15,-1.41927282279224e-05,1.21864007146685e-06,-0.630619666015524
15.0625,-0.0939243145056032,2.04581070861186e-05,-0.62284205931003
15.125,-0.1855263118902,3.82533701880939e-05,-0.599721764623618
15.1875,-0.272564040798291,5.34544558315399e-05,-0.561830716000716
15.25,-0.352893042130707,6.51376526862484e-05,-0.51010501899062
15.3125,-0.424533577144652,7.267840581028e-05,-0.44582141774958
15.375,-0.485719690408801,7.57972501392407e-05,-0.370565391540197
15.4375,-0.534943036181145,7.45751021562508e-05,-0.286191736075441
15.5,-0.570990328145558,6.94366416988445e-05,-0.19477865495716
15.5625,-0.592973435436909,6.11031314639411e-05,-0.0985765232201959
15.625,-0.600351344692359,5.05187163341576e-05,4.74109345118892e-05
15.6875,-0.592943430839489,3.87568046601842e-05,0.0986670470952187
15.75,-0.570933718945012,2.69152671098596e-05,0.194856792879342
15.8125,-0.534866065250897,1.60105774898812e-05,0.286250862309842
15.875,-0.485630427208757,6.88139690616752e-06,0.370601118334496
15.9375,-0.424440620730385,1.11327139196604e-07,0.44583209681126
16,-0.352804170787942,-4.02133601944772e-06,0.510091904982053
16.0625,-0.272485044111031,-5.56182417729874e-06,0.561797768514221
16.125,-0.185460207693141,-4.8634374670748e-06,0.599675108917453
16.1875,-0.0938710839299439,-2.54027152263412e-06,0.622789168627523
16.25,2.89262370779825e-05,6.06740712064065e-07,0.630568364546344
16.3125,0.0939296048249193,3.68268400086376e-06,0.622818741220056
16.375,0.18552046239153,5.80081508997482e-06,0.599729109239884
16.4375,0.272547335681676,6.18359776028701e-06,0.561866688045447
16.5,0.352867695964593,4.25240485643207e-06,0.510163318434607
16.5625,0.424503341090005,-3.0314506350678e-07,0.445892560572241
16.625,0.485689185170124,-7.48321220069492e-06,0.370638239033636
16.6875,0.534916930331493,-1.69674110445672e-05,0.286255228050567
16.75,0.570972507971677,-2.81372973285205e-05,0.194823478780077
16.8125,0.592966313953052,-4.01295697863621e-05,0.0985964683946138
16.875,0.600355432710027,-5.19148337335538e-05,-5.46078508594505e-05
16.9375,0.592957246360608,-6.23942430164942e-05,-0.0986994795419843
17,0.570954050962315,-7.05046086674513e-05,-0.194908798236046
17.0625,0.534888544998572,-7.53218165804158e-05,-0.286313990957098
17.125,0.485650305224596,-7.61526840510338e-05,-0.370665494642041
17.1875,0.424453611494342,-7.26066232197558e-05,-0.445887954557932
17.25,0.352807214700223,-6.46404768461047e-05,-0.510131059915997
17.3125,0.272476851297005,-5.2572396511967e-05,-0.561814807420628
17.375,0.185441486949405,-3.70633856892702e-05,-0.599668124058118
17.4375,0.0938444161453225,-1.9067903266623e-05,-0.622759940281847
17.5,-5.95476076470024e-05,2.42461473122518e-07,-0.630521980718801
17.5625,-0.0939594844368811,1.95759130578693e-05,-0.622762728962637
17.625,-0.185545038380337,3.7629745891637e-05,-0.599672223594975
17.6875,-0.272562991107164,5.32024382604433e-05,-0.561817551949343
17.75,-0.352872401988575,6.52983223579817e-05,-0.510129123611777
17.8125,-0.424497017497324,7.3214809095201e-05,-0.445878023898341
17.875,-0.485673714139906,7.66033130959218e-05,-0.370644964373141
17.9375,-0.534895821059288,7.54971909952154e-05,-0.286281557776601
18,-0.570950271859954,7.0303079665561e-05,-0.194864842644509
18.0625,-0.592947661576989,6.17557456862812e-05,-0.098646162027636
18.125,-0.600344435467759,5.08405254665225e-05,4.34541481436623e-06
18.1875,-0.592956611991388,3.86911353927169e-05,0.0986562611638896
18.25,-0.570964641845133,2.64735360674364e-05,0.194878942684924
18.3125,-0.53490922493379,1.52682069608507e-05,0.286301607044929
18.375,-0.485678141940125,5.96337546676976e-06,0.370671926945195
18.4375,-0.424484398809468,-8.29567023777041e-07,0.445911663583357
18.5,-0.352836221391221,-4.82982184482893e-06,0.510167941720432
18.5625,-0.272499663364761,-6.10495596077326e-06,0.561858891131441
18.625,-0.185454793371449,-5.05144018283528e-06,0.599712530491692
18.6875,-0.0938465982606621,-2.34057383809288e-06,0.622797948921179
18.75,6.81279747747941e-05,1.16412352749369e-06,0.630548040541686
18.8125,0.0939765493826941,4.50920490542477e-06,0.62277326205696
18.875,0.185566799377751,6.76253863847123e-06,0.599666106365983
18.9375,0.272584823334459,7.12189136594239e-06,0.561796210918828
19,0.352889667505025,5.00946020687027e-06,0.510096242951084
19.0625,0.424505890759186,1.42311539146978e-07,0.445838920598508
19.125,0.485671862945174,-7.42888367437551e-06,0.370605735496839
19.1875,0.534882821748812,-1.7317077027401e-05,0.28624813553166
19.25,0.570927684900223,-2.883233838757e-05,0.194842102857339
19.3125,0.592918754085849,-4.10478334036285e-05,0.0986372191367023
19.375,0.60031360006232,-5.28908153812399e-05,1.44407526043305e-06
19.4375,0.59292858536077,-6.32484383393447e-05,-0.0986370584470841
19.5,0.570943662071047,-7.10768378499453e-05,-0.194849633206392
19.5625,0.534898277467369,-7.55021046943602e-05,-0.28626692497754
19.625,0.485678428363373,-7.59033774985024e-05,-0.370637275671585
19.6875,0.424495122876041,-7.19709259612918e-05,-0.445882278925834
19.75,0.352854730406619,-6.37352466467972e-05,-0.510148105716304
19.8125,0.272521919767688,-5.15662923155136e-05,-0.561851313649843
19.875,0.185476092653925,-3.61445715089067e-05,-0.599717987088492
19.9375,0.0938624055547495,-1.84077708987152e-05,-0.622815221939596
20,-6.13714226197444e-05,5.2221686724157e-07,-0.630574163221145
20.0625,-0.0939807932799902,1.94262464555498e-05,-0.62280401962627
20.125,-0.185582037572594,3.70827602999267e-05,-0.599696710645895
20.1875,-0.272609094818761,5.23639964565361e-05,-0.561822041251771
20.25,-0.35291940507709,6.43266205814001e-05,-0.510113539481422
20.3125,-0.424536555352428,7.22895390549866e-05,-0.445845326562189
20.375,-0.485698750811698,7.58917350489144e-05,-0.370600611112915
20.4375,-0.5349019009283,7.51237469629847e-05,-0.286232602938722
20.5,-0.570936312183361,7.03281142926076e-05,-0.194818823408687
20.5625,-0.592916144932485,6.21667986063605e-05,-0.0986099447776424
20.625,-0.600300967882323,5.15570427451992e-05,2.55825861528447e-05
20.6875,-0.592908925393147,3.95809086237273e-05,0.0986597601453468
20.75,-0.570921218335749,2.73772205747293e-05,0.194864709263203
20.8125,-0.534877787657544,1.60272056171419e-05,0.286272326752151
20.875,-0.485664281053802,6.44627237034981e-06,0.37063247844985
20.9375,-0.42449057701228,-7.0612332429788e-07,0.445868315288905
21,-0.352861335934581,-5.08863411791322e-06,0.510127362533126
21.0625,-0.272539242445598,-6.70556941672815e-06,0.561827130499071
21.125,-0.185501791938225,-5.89715372674784e-06,0.599694122789066
21.1875,-0.093892651612547,-3.29388284580381e-06,0.622795273794438
21.25,3.12158620123704e-05,2.59919880052303e-07,0.630561028176636
21.3125,0.0939553476244043,3.80522241025309e-06,0.62279947752727
21.375,0.185565081494958,6.37981113876297e-06,0.599701188896109
21.4375,0.272602896037165,7.13078086930178e-06,0.561834590983391
21.5,0.35292431634162,5.41636039156393e-06,0.510132020462087
21.5625,0.424550952264445,8.86284433932968e-07,0.445866766600284
21.625,0.485719321446793,-6.46820589956533e-06,0.370621680378679
21.6875,0.534924235647048,-1.63007836006009e-05,0.286250128044665
21.75,0.570955688626215,-2.79352087756533e-05,0.194830262347315
21.8125,0.592928368498169,-4.04273312874083e-05,0.0986137521092412
21.875,0.600303118147396,-5.26576945061714e-05,-2.97521868565728e-05
21.9375,0.592899875687994,-6.34447589483972e-05,-0.098671035877724
22,0.57090183606369,-7.1666171308861e-05,-0.194881172492166
22.0625,0.534850779746735,-7.637453369459e-05,-0.286291332608539
22.125,0.485633712063221,-7.68949714640473e-05,-0.370651077507176
22.1875,0.424461145646715,-7.2894311589316e-05,-0.445883708560716
22.25,0.352837538703236,-6.44154118609214e-05,-0.510137320010996
22.3125,0.272524573280313,-5.18744691768827e-05,-0.561830311066037
22.375,0.185498120196906,-3.60232859112716e-05,-0.599690250125099
22.4375,0.0938998891647508,-1.78819081573594e-05,-0.622785146027136
22.5,-1.50991974126847e-05,1.35058179962768e-06,-0.630546364831816
22.5625,-0.0939339629993721,2.03981194498109e-05,-0.622782631820941
22.625,-0.1855429785278,3.80133539402341e-05,-0.599684772918499
22.6875,-0.27258475319159,5.30783165766638e-05,-0.561821073059226
22.75,-0.352914108254487,6.46923780287308e-05,-0.510123356388972
22.8125,-0.424551242210314,7.2241031712935e-05,-0.445864119485027
22.875,-0.485730804876253,7.54404105995852e-05,-0.370625268748099
22.9375,-0.534945616066208,7.43539949633089e-05,-0.286259221320139
23,-0.570983907944338,6.93797936421327e-05,-0.194843319920388
23.0625,-0.592959150885287,6.12084513308861e-05,-0.0986286806622694
23.125,-0.600331730644225,5.0755212665643e-05,1.52655807766633e-05
23.1875,-0.592921970230874,3.90712710174056e-05,0.0986591675144015
23.25,-0.570914223095776,2.72424146345607e-05,0.194873637203715
23.3125,-0.534851995761954,1.62846512188453e-05,0.286289138492611
23.375,-0.485624280102222,7.04727309939633e-06,0.370654394891038
23.4375,-0.424443482403561,1.33386941998171e-07,0.445891869558401
23.5,-0.352815524780508,-4.1537480492706e-06,0.510148944796153
23.5625,-0.272502863057805,-5.8329521695563e-06,0.561843537945723
23.625,-0.185481314092859,-5.23369841592031e-06,0.599703031500369
23.6875,-0.0938917155321592,-2.95239865751533e-06,0.622795563511978
23.75,1.24470292956111e-05,2.1886804170908e-07,0.630552915317933
23.8125,0.0939202166424658,3.38370863462126e-06,0.622784442124484
23.875,0.185519842093693,5.64347852334373e-06,0.599681712721404
23.9375,0.27255560007126,6.19974893180565e-06,0.561813752147499
24,0.352883381085377,4.44691743479466e-06,0.5101130101036
24.0625,0.424523662776515,4.5659939409005e-08,0.445852403081284
24.125,0.485710534476855,-7.0302966252479e-06,0.370613994502543
24.1875,0.534935515679683,-1.64791271747618e-05,0.286250079855754
24.25,0.57098502975172,-2.76896325731723e-05,0.194837628351326
24.3125,0.592970551553181,-3.97924791536525e-05,0.0986271948163748
24.375,0.600350639531979,-5.17393884595246e-05,-1.24484168326153e-05
24.4375,0.592944282554974,-6.24027422628227e-05,-0.0986526033668627
24.5,0.570935230287701,-7.06857979303751e-05,-0.194864431592725
24.5625,0.534867223074234,-7.56324471923734e-05,-0.286278762700738
24.625,0.485630282454189,-7.65253870000875e-05,-0.370644452510579
24.6875,0.424438456903939,-7.29627290137757e-05,-0.445883850110795
24.75,0.352799630993211,-6.49053047906969e-05,-0.510144002056103
24.8125,0.272478194083332,-5.2689934948775e-05,-0.561842325728123
24.875,0.185451523667015,-3.70073490177169e-05,-0.599705619989725
24.9375,0.0938613675418213,-1.88468827102466e-05,-0.622801446340242
25,-3.8690835665103e-05,5.86798708507489e-07,-0.63056110357022
25.0625,-0.0939384261979887,1.99771590740863e-05,-0.622793628428695
25.125,-0.185527518206371,3.80098497517837e-05,-0.599690478495292
25.1875,-0.27255211887471,5.34868477403411e-05,-0.561820785370079
25.25,-0.352870104695669,6.54301121278105e-05,-0.510117300376986
25.3125,-0.424503696506523,7.31650562501526e-05,-0.445853385189619
25.375,-0.485688173853379,7.63758562002875e-05,-0.370611620333036
25.4375,-0.534915481702415,7.51271188399737e-05,-0.286244809985131
25.5,-0.570971628507149,6.98495583720173e-05,-0.19483034700746
25.5625,-0.59296690774786,6.12908357497145e-05,-0.0986190633927468
25.625,-0.600358140346269,5.04362658987714e-05,2.01752895292034e-05
25.6875,-0.592962330783445,3.84072963071474e-05,0.0986587702575143
25.75,-0.570961350688085,2.63481003688341e-05,0.194868153873859
25.8125,-0.53489750298811,1.53119693451224e-05,0.286279552017701
25.875,-0.485660068275292,6.1592246806384e-06,0.370642278555439
25.9375,-0.424463182439529,-5.22910563334131e-07,0.445879131299557
26,-0.352815630292434,-4.470475529908e-06,0.510137528678004
26.0625,-0.272483354070511,-5.75822658474594e-06,0.561835129231673
26.125,-0.185445660425575,-4.7793240875495e-06,0.599698809795458
26.1875,-0.093846259272787,-2.19188221999223e-06,0.622796039826752
26.25,5.96200593278487e-05,1.16166189630094e-06,0.63055787513237
26.3125,0.0939607156161254,4.35374160690963e-06,0.622792999837414
26.375,0.185546464099268,6.47901632462567e-06,0.599692465871381
26.4375,0.272563611595652,6.75872923042652e-06,0.561825009064025
26.5,0.352871360062718,4.63124229757047e-06,0.510123054350163
26.5625,0.424493751404805,-1.8064977489829e-07,0.445859753604783
26.625,0.485668057855384,-7.6326059175757e-06,0.370617622302921
26.6875,0.534888034161772,-1.73556036349964e-05,0.286249549752557
26.75,0.570940993661418,-2.86869079722497e-05,0.194833146700974
26.8125,0.592937797653332,-4.07315916409407e-05,0.098619558829824
26.875,0.600334996769057,-5.24478182462364e-05,-2.19891027924413e-05
26.9375,0.592948535140011,-6.27467367887575e-05,-0.098662549275311
27,0.570958622571259,-7.05966417890751e-05,-0.194873267583398
27.0625,0.534905594258302,-7.51211291024998e-05,-0.286285187388862
27.125,0.485676807115266,-7.56822003435591e-05,-0.370647568406293
27.1875,0.424484859521161,-7.19413306685975e-05,-0.445883286943745
27.25,0.352837658358972,-6.38940085857873e-05,-0.510139956685759
27.3125,0.272501083618651,-5.1875787042662e-05,-0.561835515149714
27.375,0.185455206421182,-3.65401650283107e-05,-0.599697157183468
27.4375,0.0938451918837043,-1.88105199281303e-05,-0.622792660071988
27.5,-7.18435377746608e-05,1.90145029720692e-07,-0.630553331076415
27.5625,-0.0939826544364314,1.92265755023776e-05,-0.62278801313335
27.625,-0.18557495044786,3.70495342954641e-05,-0.599687803165869
27.6875,-0.272594314075568,5.24976680215918e-05,-0.561821364838102
27.75,-0.352899554045947,6.45948039251593e-05,-0.51012094821487
27.8125,-0.424515159238008,7.26340460733889e-05,-0.445859457123859
27.875,-0.485679609479768,7.62402720721733e-05,-0.370619125497301
27.9375,-0.534888412863926,7.54038151818841e-05,-0.286252571140433
28,-0.570930869892974,7.04803784024626e-05,-0.194837184035354
28.0625,-0.592919709348048,6.21554791606389e-05,-0.0986239716365649
28.125,-0.600312897476874,5.13756334923576e-05,1.787861574995e-05
28.1875,-0.592927090399762,3.9252517904014e-05,0.0986593527326225
28.25,-0.570942379738056,2.69498530967249e-05,0.194871440085206
28.3125,-0.534898173514206,1.55651350181513e-05,0.286284963527612
28.375,-0.485680257612469,6.01917707594295e-06,0.370648933518265
28.4375,-0.424499295206859,-1.03441557350125e-06,0.445885986867926
28.5,-0.352861238243197,-5.27008084725259e-06,0.510143543388874
28.5625,-0.272530339935303,-6.71516195466839e-06,0.561839420242124
28.625,-0.185485662214391,-5.73657421252405e-06,0.599700781381139
28.6875,-0.0938721580502587,-2.99115772414149e-06,0.622795464615074
28.75,5.24336368936762e-05,6.54696502566126e-07,0.630554917243627
28.8125,0.0939735213386826,4.22755746612509e-06,0.622788178208289
28.875,0.185576984685708,6.76089608445422e-06,0.599686565119286
28.9375,0.272606418072219,7.40862176643612e-06,0.56181895294671
29,0.352918837876286,5.5462993091816e-06,0.510117762063315
29.0625,0.424537455343192,8.49157547952038e-07,0.445856001135076
29.125,0.485700214676316,-6.66185293680125e-06,0.370615929613805
29.1875,0.534902925565139,-1.66115014675595e-05,0.286250110048462
29.25,0.570935973547651,-2.83007447969579e-05,0.194835807169029
29.3125,0.59291376269964,-4.07733020598519e-05,0.0986238542020466
29.375,0.600296226639468,-5.29111187555557e-05,-1.67568376142485e-05
29.4375,0.592901930811292,-6.35479911690299e-05,-0.0986571984438662
29.5,0.57091247834379,-7.1588486248729e-05,-0.19486860964703
29.5625,0.534868121975435,-7.61189038582691e-05,-0.286281904654253
29.625,0.485654675178536,-7.64984436382373e-05,-0.370646114936602
29.6875,0.424482006628093,-7.2421665232684e-05,-0.445883826922193
29.75,0.352854592985027,-6.39471963667514e-05,-0.510142348399272
29.8125,0.272534793823733,-5.14917424821337e-05,-0.561839341627772
29.875,0.185499695968286,-3.5792121129889e-05,-0.599701797455511
29.9375,0.0938925472343863,-1.78408153340293e-05,-0.622797389060179
30,-3.00452179327925e-05,1.19777952401364e-06,-0.630557432182638
30.0625,-0.093953846774652,2.00825723912336e-05,-0.62279088614607
30.125,-0.18556425545186,3.75946901307772e-05,-0.599689051344463
30.1875,-0.272603631053835,5.26328111709867e-05,-0.561820848662031
30.25,-0.352927221912554,6.42982763311267e-05,-0.510118798692883
30.3125,-0.424556252242863,7.19639906699209e-05,-0.445856047874702
30.375,-0.485726813719261,7.53218607747508e-05,-0.370615009057541
30.4375,-0.534933327610886,7.44044968401882e-05,-0.286248390187991
30.5,-0.570965502216067,6.95783639716069e-05,-0.194833571680057
30.5625,-0.592937896111798,6.15076291057953e-05,-0.0986214561516415
30.625,-0.600311401740453,5.10905812586117e-05,1.89503789684714e-05
30.6875,-0.592906177165874,3.9373451796683e-05,0.0986588622520729
30.75,-0.570905768637094,2.74492943248661e-05,0.194869508210857
30.8125,-0.534852376862895,1.63517854826927e-05,0.286281925068879
30.875,-0.485633421637712,6.95491734960295e-06,0.37064528030356
30.9375,-0.424459750618493,-1.1071018717545e-07,0.445882288812627
31,-0.352836018046682,-4.51594481598187e-06,0.510140360140026
31.0625,-0.272523928196283,-6.25924501272359e-06,0.561837217013836
31.125,-0.185499196387345,-5.65825098123126e-06,0.59969986155564
31.1875,-0.093903226775712,-3.30782047212611e-06,0.622795928778754
31.25,9.36131602793963e-06,-9.08294457181184e-09,0.630556654051014
31.3125,0.0939261117381461,3.32306411709155e-06,0.622790887503916
31.375,0.185533675364973,5.76456866247351e-06,0.599689808867524
31.4375,0.272574916572695,6.48841185897777e-06,0.561822225456644
31.5,0.352904750432269,4.86169028992721e-06,0.510120568337473
31.5625,0.424543289545554,5.23679450516949e-07,0.445857931276915
31.625,0.48572493351796,-6.56339966949722e-06,0.370616718181758
31.6875,0.534942132179366,-1.60967471449473e-05,0.286249671844913
31.75,0.570982693726387,-2.74511843971454e-05,0.194834244761032
31.8125,0.5929596859184,-3.97322694464515e-05,0.098621436875206
31.875,0.600333184745737,-5.18596380662052e-05,-1.96386710530835e-05
31.9375,0.592923351265357,-6.26724021406545e-05,-0.0986600957757239
32,0.570914553453308,-7.10457349006924e-05,-0.194871084403981
32.0625,0.534850486121584,-7.60062822774499e-05,-0.286283595526543
32.125,0.485620469591038,-7.68340334806816e-05,-0.370646789675792
32.1875,0.424437320243976,-7.31397986074956e-05,-0.44588341361102
32.25,0.352807378929371,-6.49102587141196e-05,-0.510140941590732
32.3125,0.272493454330232,-5.25162481471918e-05,-0.561837183164507
32.375,0.185471587521769,-3.66839616404498e-05,-0.59969923560872
32.4375,0.0938826718824394,-1.84326128631194e-05,-0.622794822794023
32.5,-1.99295840433724e-05,1.01473009726119e-06,-0.630555249396499
32.5625,-0.0939255389249808,2.033812180434e-05,-0.622789405397969
32.625,-0.185522790560742,3.82352565576527e-05,-0.599688475755735
32.6875,-0.272556384700828,5.35329845875552e-05,-0.561821238609967
32.75,-0.352882597776987,6.52858971343033e-05,-0.510120066868006
32.8125,-0.424522186975261,7.28533951029687e-05,-0.445857976797051
32.875,-0.48570936498322,7.59485983043494e-05,-0.370617287751393
32.9375,-0.534935596480813,7.46548737365452e-05,-0.286250663915485
33,-0.570987081624974,6.94085458460089e-05,-0.194835496838662
33.0625,-0.592974943451832,6.09493526487954e-05,-0.0986227518891727
33.125,-0.600357322676486,5.02432222942709e-05,1.84615373016728e-05
33.1875,-0.592952798983332,3.83846895858844e-05,0.0986592305868157
33.25,-0.570944794354755,2.64884322951163e-05,0.194870652913646
33.3125,-0.53487686139419,1.55806757245214e-05,0.286283650281864
33.375,-0.485639007367392,6.50136721258788e-06,0.370647308090107
33.4375,-0.424445442572313,-1.73020830973787e-07,0.445884303583035
33.5,-0.352804360753143,-4.17834758037862e-06,0.510142057483128
33.5625,-0.272480552795432,-5.57860630841532e-06,0.561838349421007
33.625,-0.185451818589989,-4.74744258795645e-06,0.59970027421086
33.6875,-0.0938602739807093,-2.3177165450237e-06,0.622795580287757
33.75,4.02494630619728e-05,8.95321010980406e-07,0.630555619407946
33.8125,0.0939394425529422,3.98906922350402e-06,0.622789343359546
33.875,0.18552708026972,6.076940729318e-06,0.599688003839223
33.9375,0.272549572338754,6.3894395755927e-06,0.561820440405096
34,0.352865169600103,4.36268125349301e-06,0.510119072912608
34.0625,0.424496517346821,-2.94576640548429e-07,0.445856943418804
34.125,0.485679294223765,-7.56210908515505e-06,0.370616372623184
34.1875,0.534905747960445,-1.71014398635293e-05,0.286250002125851
34.25,0.570962039573205,-2.82816760639436e-05,0.194835181088914
34.3125,0.592958437734027,-4.02352387061833e-05,0.0986228196986893
34.375,0.600351565540246,-5.19377909821353e-05,-1.80318838946536e-05
34.4375,0.592958091737066,-6.230434530996e-05,-0.0986585149927618
34.5,0.570959473916701,-7.02921158068405e-05,-0.194869768356691
34.5625,0.534897596189515,-7.50002934528326e-05,-0.286282735860214
34.625,0.485661389911334,-7.57575269310896e-05,-0.370646503275292
34.6875,0.424464773313327,-7.21893287313536e-05,-0.445883727060847
34.75,0.352816483746149,-6.42596444404946e-05,-0.510141789775222
34.8125,0.272482594576565,-5.22831547359611e-05,-0.561838421812326
34.875,0.185442698862081,-3.69072963534107e-05,-0.599700665476095
34.9375,0.0938408973221563,-1.90653358362514e-05,-0.622796221482438
35,-6.71549101174247e-05,9.59744980602467e-08,-0.630556405757454
35.0625,-0.0939698106696537,1.93086291745206e-05,-0.622790151230195
35.125,-0.185556230408918,3.72882095100981e-05,-0.599688710063668
35.1875,-0.272573041927476,5.28426451246396e-05,-0.561820940957897
35.25,-0.352879507790578,6.49753174530745e-05,-0.510119298119601
35.3125,-0.42449989855423,7.29727508229812e-05,-0.445856867494573
35.375,-0.485671842439928,7.6467883604642e-05,-0.370616016258109
35.4375,-0.534889514189561,7.54717083208433e-05,-0.286249427938715
35.5,-0.570940636447296,7.03688978090737e-05,-0.194834482850234
35.5625,-0.592936396354796,6.18766854866467e-05,-0.0986221071494063
35.625,-0.600333529011229,5.09703378676719e-05,1.8650179163103e-05
35.6875,-0.592947988901875,3.87824999620463e-05,0.0986589480935219
35.75,-0.570959820334802,2.64869178653703e-05,0.194869956217381
35.8125,-0.53490904673192,1.51790364113045e-05,0.286282657504375
35.875,-0.48568262257351,5.76641509842063e-06,0.370646178785581
35.9375,-0.424492724890676,-1.11925366749624e-06,0.445883213271146
36,-0.352846895391085,-5.17929706837788e-06,0.510141170511218
36.0625,-0.272510770103832,-6.46870671205577e-06,0.561837794330848
36.125,-0.185464340808353,-5.37863443644007e-06,0.599700125280507
36.1875,-0.0938528719373626,-2.58313002334608e-06,0.622795847871668
36.25,6.62598983135613e-05,1.04386848008485e-06,0.630556250282729
36.3125,0.0939794347772684,4.53236754311206e-06,0.622790230724227
36.375,0.185573940298251,6.9300352588786e-06,0.599689005160702
36.4375,0.272594964674089,7.41387454666345e-06,0.561821400159454
36.5,0.352901020366531,5.38804605397004e-06,0.510119846615794
36.5625,0.42451645078898,5.57314798724077e-07,0.445857419252427
36.625,0.485679766981601,-7.03198855601543e-06,0.370616487437435
36.6875,0.534886679322445,-1.69881882645272e-05,0.286249749555004
36.75,0.570926825603764,-2.86082550467475e-05,0.194834610783705
36.8125,0.592913346806046,-4.09458237904495e-05,0.09862202806226
36.875,0.600304622870192,-5.29055185519542e-05,-1.89177873239701e-05
36.9375,0.592917651431065,-6.33528536507957e-05,-0.0986593576990036
37,0.570932732617523,-7.12274107642673e-05,-0.194870441220812
37.0625,0.5348893127797,-7.56471024616098e-05,-0.286283141975283
37.125,0.485673039038562,-7.59930411787798e-05,-0.370646589281388
37.1875,0.424494283295303,-7.19674531192602e-05,-0.445883489901459
37.25,0.352858605427099,-6.36206173659037e-05,-0.510141275591026
37.3125,0.272529835450779,-5.1346330031183e-05,-0.561837717386016
37.375,0.185486656223866,-3.58483619988566e-05,-0.59969988376339
37.4375,0.0938737532328804,-1.80824959481094e-05,-0.62279548361673
37.5,-5.12428087315235e-05,8.20041081512901e-07,-0.630555822378467
37.5625,-0.0939736699119883,1.96414050730583e-05,-0.622789805999642
37.625,-0.185579170882928,3.71717568485457e-05,-0.599688647807513
37.6875,-0.272610978883992,5.23032226562308e-05,-0.561821162092591
37.75,-0.352925688758339,6.41167290765596e-05,-0.510119760009884
37.8125,-0.424546104806079,7.19552520824279e-05,-0.445857492314217
37.875,-0.485709851243055,7.54772357039455e-05,-0.370616703948245
37.9375,-0.534912561690841,7.46846495104266e-05,-0.286250072127391
38,-0.570944620942166,6.99216238893691e-05,-0.194834987215907
38.0625,-0.592920607882882,6.18419367916876e-05,-0.0986223997241203
38.125,-0.600300775496545,5.13467023704887e-05,1.86068748719778e-05
38.1875,-0.592904096417606,3.94970621420097e-05,0.0986591524884777
38.25,-0.570912596422627,2.74099540012529e-05,0.194870369211364
38.3125,-0.534866891233374,1.61475335042137e-05,0.286283209640607
38.375,-0.485653033139603,6.61204803884658e-06,0.370646781796377
38.4375,-0.424480963068717,-5.42347778474878e-07,0.445883774096552
38.5,-0.352855050610995,-4.97116894129573e-06,0.510141605577603
38.5625,-0.272537388084858,-6.66793151120055e-06,0.56183804191086
38.625,-0.185504682479052,-5.95635281134892e-06,0.599700154122061
38.6875,-0.0938997567760539,-3.44746910203029e-06,0.622795660911304
38.75,2.11761767087371e-05,3.36421609374391e-08,0.630555883046662
38.8125,0.0939441755380841,3.54385292273526e-06,0.62278974484094
38.875,0.185554780478857,6.13085272569477e-06,0.599688478137006
38.9375,0.272595314437562,6.9438362749463e-06,0.561820913099672
39,0.352920818527917,5.33468743726891e-06,0.510119471817861
39.0625,0.424552175911309,9.39044642841113e-07,0.445857209565884
39.125,0.485725064130942,-6.27167640761055e-06,0.37061646893526
39.1875,0.534933490926779,-1.59735766415097e-05,0.286249918513952
39.25,0.570966825172363,-2.75116640193208e-05,0.194834935279592
39.3125,0.59293942039219,-3.99580456441832e-05,0.0986224537760204
39.375,0.600312134685414,-5.22014032414723e-05,-1.84585807802284e-05
39.4375,0.592905268446898,-6.30584241201279e-05,-0.0986589354314869
39.5,0.570902661479277,-7.13950590470776e-05,-0.194870118301085
39.5625,0.534846906934531,-7.62441773035484e-05,-0.286282963651439
39.625,0.485625846035967,-7.69066439659425e-05,-0.370646577419426
39.6875,0.42445070181295,-7.30249983756844e-05,-0.445883640514515
39.75,0.352826390990497,-6.46223992775642e-05,-0.510141560356669
39.8125,0.272514720706445,-5.2103730144739e-05,-0.56183808877795
39.875,0.185491331215991,-3.62200539075488e-05,-0.599700282892175
39.9375,0.0938973870610962,-1.80013636613221e-05,-0.622795849498858
40,-1.28539026434886e-05,1.33462555669686e-06,-0.630556101184966
40.0625,-0.093927354427481,2.04882409062408e-05,-0.622789958892851
40.125,-0.18553316705204,3.81882103394772e-05,-0.599688656238832
40.1875,-0.272573468953362,5.32970011882638e-05,-0.561821029858536
40.25,-0.352903343327317,6.49025247929331e-05,-0.510119511877449
40.3125,-0.424542896180253,7.23890247559539e-05,-0.445857169549364
40.375,-0.485726346891879,7.54816897344081e-05,-0.37061635753391
40.4375,-0.534945823479495,7.42614974447341e-05,-0.286249754773968
40.5,-0.570988728036948,6.91490073877229e-05,-0.194834745406356
40.5625,-0.592967710277083,6.08582654333906e-05,-0.0986222669841623
40.625,-0.600342490707039,5.03245761132909e-05,1.86145211253513e-05
40.6875,-0.592933000855075,3.86124372426511e-05,0.0986590382795291
40.75,-0.570923546100635,2.6812112876439e-05,0.194870154467474
40.8125,-0.53485793685031,1.59347981426991e-05,0.286282929928107
40.875,-0.485625766739918,6.8168018442648e-06,0.370646481108714
40.9375,-0.424440234625631,4.24715063907996e-08,0.445883497993976
41,-0.352808104977538,-4.10626926759442e-06,0.510141394345987
41.0625,-0.272492575887461,-5.66869623410218e-06,0.561837924756986
41.125,-0.185469974328562,-4.99067033028517e-06,0.599700145228736
41.1875,-0.0938813251585466,-2.67844677992471e-06,0.622795757868914
41.25,2.00550180728e-05,4.74044814243793e-07,0.630556067804503
41.3125,0.0939237043624445,3.57679279571076e-06,0.622789986943387
41.375,0.185518604784575,5.74475938691649e-06,0.599688739679892
41.4375,0.272549873658654,6.1982072500825e-06,0.561821154609754
41.5,0.352874200160169,4.35229695927699e-06,0.510119658151897
41.5625,0.424512676476383,-1.12939578520593e-07,0.445857314957487
41.625,0.48569971303816,-7.20924695456774e-06,0.370616480476486
41.6875,0.534926799878988,-1.66278813719476e-05,0.286249837615247
41.75,0.570979985613936,-2.77599350195518e-05,0.194834776967147
41.8125,0.592970091761287,-3.97476000933537e-05,0.098622244008157
41.875,0.600354861099573,-5.15616707982946e-05,-1.86871125986074e-05
41.9375,0.592952449632175,-6.20979385710114e-05,-0.0986591483464792
42,0.57094590514555,-7.02831952560144e-05,-0.194870284647179
42.0625,0.534878521948727,-7.51805498845901e-05,-0.286283060345431
42.125,0.485640210719576,-7.60838060876874e-05,-0.370646592382206
42.1875,0.424445263937011,-7.25917231632647e-05,-0.445883574087399
42.25,0.352802121594538,-6.4654949698704e-05,-0.510141424850909
42.3125,0.272475941057757,-5.25910336349399e-05,-0.561837906285674
42.375,0.185444943755963,-3.7065889954685e-05,-0.599700081736326
42.4375,0.0938516472131604,-1.9043161522557e-05,-0.622795659884954
42.5,-4.98065242005344e-05,2.9421074211934e-07,-0.630555950714351
42.5625,-0.0939489440896124,1.96433903676129e-05,-0.622789868595632
42.625,-0.185535551647986,3.76932447442176e-05,-0.599688637688045
42.6875,-0.272556223347079,5.32380906224815e-05,-0.561821083752265
42.75,-0.352869534765906,6.52830633679732e-05,-0.510119628250822
42.8125,-0.424498538397303,7.31310186736402e-05,-0.445857329537009
42.875,-0.485679330051911,7.64422658003573e-05,-0.370616536381509
42.9375,-0.534904510354104,7.52607633351953e-05,-0.286249925625255
43,-0.570960466171926,7.00035547049799e-05,-0.194834883293385
43.0625,-0.592957524846179,6.14139221397687e-05,-0.0986223524349872
43.125,-0.600352190595552,5.04826075535797e-05,1.85927716506093e-05
43.1875,-0.59296085699411,3.83450128353724e-05,0.0986590818467028
43.25,-0.570964599260462,2.61650638639503e-05,0.194870255319109
43.3125,-0.53490488011143,1.50179968629711e-05,0.28628307179644
43.375,-0.485670245618037,5.78446459187598e-06,0.370646642072678
43.4375,-0.424474333522481,-9.32955731834098e-07,0.445883653827878
43.5,-0.352825755484373,-4.86234163745358e-06,0.510141522130029
43.5625,-0.272490636378872,-6.07903977176529e-06,0.561838006216953
43.625,-0.185448788776357,-4.98515937693292e-06,0.599700169323646
43.6875,-0.0938446617603485,-2.25466971776707e-06,0.622795722264143
43.75,6.56744510180619e-05,1.24969737951362e-06,0.630555979037338
43.8125,0.0939701649145333,4.57876677838114e-06,0.622789859282041
43.875,0.185557642336768,6.8076325168714e-06,0.599688592867513
43.9375,0.272574545260865,7.14313614541095e-06,0.561821010844105
44,0.352880119256226,5.01681965028877e-06,0.510119538757585
44.0625,0.42449879321483,1.53542245447081e-07,0.445857237244762
44.125,0.485668500856965,-7.39150852794549e-06,0.370616455245961
44.1875,0.534883815202951,-1.72312859178158e-05,0.286249867666423
44.25,0.570932879047905,-2.86808040029611e-05,0.19483485681526
44.3125,0.592927246753032,-4.08225326349686e-05,0.098622360834026
44.375,0.60032390231667,-5.25958281412251e-05,-1.85514373296294e-05
44.4375,0.592938886458074,-6.29004724329321e-05,-0.0986590144738926
44.5,0.570952151634192,-7.07032267861888e-05,-0.194870172630994
44.5625,0.534903467572112,-7.51365778518252e-05,-0.286282986650195
44.625,0.485679418226961,-7.55804135192354e-05,-0.370646567468778
44.6875,0.424491759062277,-7.17198402319837e-05,-0.445883600927725
44.75,0.35284763405493,-6.35752420490154e-05,-0.510141498583944
44.8125,0.272512376014885,-5.15034954919513e-05,-0.561838015053687
44.875,0.185465821935042,-3.61716347259652e-05,-0.599700208563334
44.9375,0.0938532574818752,-1.85060520094023e-05,-0.622795785304323
45,-6.77471353015526e-05,3.78437876272447e-07,-0.630556055742251
45.0625,-0.0939832402986367,1.92644656400552e-05,-0.622789937598353
45.125,-0.185580098625048,3.69269908411357e-05,-0.599688660710687
45.1875,-0.272603092990755,5.22305984635376e-05,-0.561821057961111
45.25,-0.352910386270516,6.4221962295553e-05,-0.510119558278797
45.3125,-0.424526102153099,7.22097967232662e-05,-0.445857226689559
45.375,-0.485688700889678,7.58246826529978e-05,-0.370616416833713
45.4375,-0.534894020075449,7.5052014367197e-05,-0.286249807894506
45.5,-0.570931980159817,7.02331742045183e-05,-0.194834785379571
45.5625,-0.592916110011926,6.2032902867672e-05,-0.0986222890690299
45.625,-0.600305213760899,5.13744441752556e-05,1.86123498288754e-05
45.6875,-0.592916674134475,3.93479202956469e-05,0.0986590552446717
45.75,-0.570931068821031,2.71009125005901e-05,0.194870187281186
45.8125,-0.534887964902041,1.57227615206303e-05,0.286282973390281
45.875,-0.485672952027437,6.13519291557348e-06,0.370646528908504
45.9375,-0.424496176772077,-9.98684845216879e-07,0.445883543594081
46,-0.35286284604454,-5.33706547516788e-06,0.51014143183196
46.0625,-0.272536372150884,-6.88715524317022e-06,0.561837949550401
46.125,-0.185495029864133,-5.99520314233944e-06,0.59970015458913
46.1875,-0.093883178795825,-3.3002224309975e-06,0.622795751141569
46.25,4.1736130348098e-05,3.43483897207247e-07,0.630556046404221
46.3125,0.0939650657489131,3.96680211031339e-06,0.622789954093721
46.375,0.185572290659828,6.59887624511821e-06,0.599688699952045
46.4375,0.27260633587294,7.38108775182619e-06,0.561821113322429
46.5,0.352923397147466,5.67002961097122e-06,0.510119620703665
46.5625,0.424545859895843,1.11839960078951e-06,0.445857286166542
46.625,0.485710984212377,-6.27530969375987e-06,0.370616463998863
46.6875,0.53491415911101,-1.61544223213336e-05,0.286249835504746
46.75,0.570945687715175,-2.7831172367301e-05,0.194834789424834
46.8125,0.592920244582174,-4.03510109060316e-05,0.098622269351664
46.875,0.600298338552424,-5.25874201787019e-05,-1.86522516266302e-05
46.9375,0.592899312661116,-6.33567511436592e-05,-0.0986591086138443
47,0.57090561162994,-7.15401088616606e-05,-0.194870245387451
47.0625,0.534858244052514,-7.61985511626704e-05,-0.286283026916701
47.125,0.4856435590486,-7.66689820623899e-05,-0.370646569445897
47.1875,0.424471645455203,-7.26308986164928e-05,-0.445883564963078
47.25,0.352846845470056,-6.41380633952696e-05,-0.510141431024733
47.3125,0.272531053533497,-5.1613519282855e-05,-0.561837927147871
47.375,0.185500643443924,-3.58104271458629e-05,-0.599700114596918
47.4375,0.0938980289708533,-1.774443499359e-05,-0.622795700281612
47.5,-2.09894036017244e-05,1.39461552301177e-06,-0.63055599298617
47.5625,-0.0939428128677376,2.03428881840329e-05,-0.622789906655295
47.625,-0.185553191266202,3.78658893409498e-05,-0.599688665891086
47.6875,-0.272594489685251,5.28567916504134e-05,-0.561821097740321
47.75,-0.352921614272318,6.44225342959717e-05,-0.510119625641621
47.8125,-0.424555160484126,7.19515639802016e-05,-0.445857310349015
47.875,-0.48573041653437,7.51582465157791e-05,-0.370616503114669
47.9375,-0.534940968474806,7.4100322958188e-05,-0.286249882968417
48,-0.570975806220859,6.91674503267321e-05,-0.194834837485593
48.0625,-0.592949014602879,6.10409556032144e-05,-0.0986223103628489
48.125,-0.600321341229287,5.06274118840564e-05,1.86246108546811e-05
48.1875,-0.592913154000772,3.89713106871164e-05,0.0986590983599946
48.25,-0.570908526331494,2.71545912740713e-05,0.194870253650298
48.3125,-0.534850409624503,1.61926581503262e-05,0.286283051836675
48.375,-0.485627064330689,6.93737487231726e-06,0.370646606555605
48.4375,-0.424450119155518,-2.87593321873043e-09,0.44588360797937
48.5,-0.352824810819684,-4.31764569143521e-06,0.510141472911842
48.5625,-0.272513123879424,-6.01768926764739e-06,0.561837961271713
48.625,-0.185490701883154,-5.42473949965549e-06,0.599700135781118
48.6875,-0.0938985379450671,-3.1290514532292e-06,0.622795705596171
48.75,9.42577562105092e-06,8.07030077364906e-08,0.630555982148192
48.8125,0.0939215559191062,3.30790324404648e-06,0.622789881987921
48.875,0.185525325375638,5.64964203079836e-06,0.599688631860452
48.9375,0.272564273507934,6.29944677758761e-06,0.561821060159072
49,0.352893723257588,4.64087215107286e-06,0.510119590679546
49.0625,0.424533855429217,3.22590693970491e-07,0.445857283518624
49.125,0.485718786052182,-6.69277711957999e-06,0.370616488399091
49.1875,0.534940380082171,-1.61115185166785e-05,0.286249882229724
49.25,0.570985663628677,-2.73258632670117e-05,0.194834850241423
49.3125,0.592966864316157,-3.94643535734884e-05,0.0986223339557565
49.375,0.600343309432573,-5.14712479614144e-05,-1.85944932456078e-05
49.4375,0.592934635963015,-6.22074561785657e-05,-0.0986590669119081
49.5,0.570925005660564,-7.05629699848352e-05,-0.194870226058795
49.5625,0.534858261621385,-7.55692692585023e-05,-0.28628303242806
49.625,0.485624200540584,-7.64999964334865e-05,-0.370646598117834
49.6875,0.424436358480486,-7.29493667723053e-05,-0.445883611366248
49.75,0.352801911215425,-6.48801677348171e-05,-0.510141486984321
49.8125,0.272484469050559,-5.26364675051828e-05,-0.561837983173433
49.875,0.185460698772425,-3.69198613455139e-05,-0.599700161489004
49.9375,0.0938718322615707,-1.87317751262032e-05,-0.622795730643407
50,-2.87763792364235e-05,7.12383384653633e-07,-0.63055600239114
50.0625,-0.0939308038882321,2.00888765463185e-05,-0.622789894286501
50.125,-0.185523522039872,3.80810682928067e-05,-0.599688634560579
50.1875,-0.272552437654794,5.34938823062861e-05,-0.561821053303774
50.25,-0.352874659524869,6.53567377387407e-05,-0.510119575923814
50.3125,-0.424511654865266,7.30054904590646e-05,-0.445857263774745
50.375,-0.485698097751889,7.61357741883589e-05,-0.370616467283741
50.4375,-0.534925583541349,7.48226815221287e-05,-0.286249863415378
50.5,-0.570980089122231,6.95047977662856e-05,-0.194834836826511
50.5625,-0.592972200053488,6.09339844472288e-05,-0.0986223279612923
50.625,-0.60035930099962,5.00957114530251e-05,1.85924200785323e-05
50.6875,-0.592959131540785,3.81077999000372e-05,0.0986590575446036
50.75,-0.570954338972557,2.61077843826093e-05,0.194870211391212
50.8125,-0.534887904457994,1.51404025804681e-05,0.286283015272416
50.875,-0.485649568733407,6.05676109906436e-06,0.370646581578771
50.9375,-0.424453627890131,-5.64529538617264e-07,0.445883598287983
51,-0.352808698512547,-4.46636235575148e-06,0.510141479468068
51.0625,-0.272480256128202,-5.72764178434959e-06,0.561837982246475
51.125,-0.185446925247061,-4.74233439453329e-06,0.599700166976597
51.1875,-0.0938516395823635,-2.165799051872e-06,0.622795741257157
51.25,5.11036980862758e-05,1.16555460708543e-06,0.630556016009028
51.3125,0.0939506005003855,4.33261490600327e-06,0.622789908366694
51.375,0.185536571845494,6.43956398217841e-06,0.599688646610115
51.4375,0.272555724029411,6.71651688234241e-06,0.5618210613166
51.5,0.352866902207377,4.60825277408733e-06,0.510119578711734
51.5625,0.424493537971343,-1.6000553014798e-07,0.445857261137158
51.625,0.485672148334526,-7.5463797867256e-06,0.370616459992818
51.6875,0.53489572229447,-1.71891917809035e-05,0.286249853027732
51.75,0.570950933152979,-2.84369049191673e-05,0.194834825363158
51.8125,0.592948241754792,-4.04077192891603e-05,0.0986223175193525
51.875,0.600344109090528,-5.20723783581208e-05,-1.86000500665487e-05
51.9375,0.592954716389451,-6.23515445216598e-05,-0.0986590611869276
52,0.570960795082551,-7.02179554106313e-05,-0.194870210664967
52.0625,0.534903393687789,-7.47935600568025e-05,-0.286283010616691
52.125,0.485670647207427,-7.54328461288395e-05,-0.370646574125119
52.1875,0.424475858431458,-7.17853483610003e-05,-0.445883589610329
52.25,0.352827439655025,-6.38325392354969e-05,-0.510141471262901
52.3125,0.272491487376633,-5.18966237995538e-05,-0.561837976005828
52.375,0.185447961826329,-3.66209574105751e-05,-0.599700163715937
52.4375,0.093841609587371,-1.89237686067743e-05,-0.622795741347891
52.5,-7.1104572794624e-05,7.13991567425607e-08,-0.630556019143065
52.5625,-0.0939777041279949,1.91235542564881e-05,-0.622789913654629
52.625,-0.185566647983994,3.69740280388763e-05,-0.59968865278903
52.6875,-0.272584115000968,5.24504738255791e-05,-0.561821067022874
52.75,-0.352889251259836,6.45664423048056e-05,-0.510119582763262
52.8125,-0.424506563989219,7.2607435651813e-05,-0.445857262768649
52.875,-0.485674229116485,7.6194692354241e-05,-0.370616458999017
52.9375,-0.534887182669378,7.53193168820581e-05,-0.286249849787967
53,-0.570933986713099,7.03418186400158e-05,-0.194834820745003
53.0625,-0.592926596605204,6.19555297060348e-05,-0.0986223126825023
53.125,-0.600322307787839,5.1116369484853e-05,1.8603907970316e-05
53.1875,-0.592937327534829,3.89454708752496e-05,0.0986590630908973
53.25,-0.570951600426872,2.66146485986267e-05,0.19487021007634
53.3125,-0.534904715399872,1.52270012431525e-05,0.286283007556033
53.375,-0.485682935005405,5.70570459007823e-06,0.370646569179231
53.4375,-0.424497610020934,-1.29684347732707e-06,0.445883583820544
53.5,-0.352855468588902,-5.45975886524975e-06,0.510141465916028
53.5625,-0.27252149061248,-6.8180125923355e-06,0.561837972368547
53.625,-0.185475285917726,-5.74817742386165e-06,0.599700162765444
53.6875,-0.0938620791024685,-2.91751726778781e-06,0.622795743552843
53.75,6.04438685867789e-05,7.9787997422361e-07,0.630556024340224
53.8125,0.0939780595925282,4.41715132064129e-06,0.622789921048677
53.875,0.185577265451785,6.96993336586621e-06,0.599688661079312
53.9375,0.272602413321278,7.61074843870523e-06,0.561821074636158
54,0.352911282014887,5.72034498198365e-06,0.510119588150526
54.0625,0.424527714518772,9.82969188191682e-07,0.445857264710116
54.125,0.48569004369102,-6.56913898171529e-06,0.370616456858556
54.1875,0.534894155653302,-1.65493415111956e-05,0.286249843666476
54.25,0.57093018657117,-2.82494124143497e-05,0.194834811499087
54.3125,0.592912009729447,-4.07081459478067e-05,0.0986223018008193
54.375,0.600298840990764,-5.28080678876889e-05,-1.86145526853213e-05
54.4375,0.592908468791423,-6.33891889921098e-05,-0.0986590715716007
54.5,0.570921798246032,-7.13668442693951e-05,-0.194870214764693
54.5625,0.534878587253768,-7.58405537986096e-05,-0.286283007432999
54.625,0.485664445645034,-7.61825038047094e-05,-0.37064656404511
54.6875,0.424489365856727,-7.20973213818662e-05,-0.445883574362241
54.75,0.352858253668895,-6.36486894731145e-05,-0.510141453614974
54.8125,0.272534126760923,-5.12523112550489e-05,-0.56183795926179
54.875,0.185494841944633,-3.56381574441174e-05,-0.59970015109909
54.9375,0.0938843919093487,-1.77874116023925e-05,-0.622795735388181
55,-4.00289414051232e-05,1.14905107512917e-06,-0.6305560211825
55.0625,-0.0939638608406653,1.99433153239492e-05,-0.622789923566037
55.125,-0.185572496566016,3.73869880036094e-05,-0.599688668964464
55.1875,-0.272608611502534,5.2384853700333e-05,-0.561821086638671
55.25,-0.352928034212223,6.403925774717e-05,-0.510119602277384
55.3125,-0.424552730541481,7.17192823622446e-05,-0.445857278562125
55.375,-0.485719563244079,7.51093026376161e-05,-0.370616468044825
55.4375,-0.534923616932979,7.423234699668e-05,-0.286249850224736
55.5,-0.570955037507878,6.94450820043395e-05,-0.194834812247103
55.5625,-0.592928517566707,6.14033296622922e-05,-0.0986222965554146
55.625,-0.600304756168718,5.09997460784848e-05,1.86249301428743e-05
55.6875,-0.59290342501688,3.92783565885281e-05,0.0986590853136081
55.75,-0.57090737756996,2.73335858264747e-05,0.194870229497869
55.8125,-0.534858038586913,1.62037025111989e-05,0.286283020589417
55.875,-0.485642106811203,6.76974960320677e-06,0.370646573312779
55.9375,-0.424469892031505,-3.29220326326441e-07,0.445883578095835
56,-0.352845789489884,-4.75544154491321e-06,0.510141451132729
56.0625,-0.272531569396067,-6.49990850065484e-06,0.561837950975187
56.125,-0.185503326193279,-5.8751927707479e-06,0.599700138450055
56.1875,-0.0939030888791761,-3.47450005221584e-06,0.62279572060268
56.25,1.37638470272334e-05,-1.01340012637271e-07,0.630556006882599
56.3125,0.0939340170398434,3.32293783704792e-06,0.622789912307516
56.375,0.185543698365437,5.86440665145644e-06,0.59968866278159
56.4375,0.27258529545679,6.68408953689327e-06,0.561821086677172
56.5,0.352913660127889,5.13692568439891e-06,0.510119608581693
56.5625,0.424549166451563,8.51964855029703e-07,0.445857290056653
56.625,0.485726753696197,-6.21489595322984e-06,0.370616482714348
56.6875,0.53493959351499,-1.57619060668066e-05,0.28624986546399
56.75,0.570976269649592,-2.71592434416341e-05,0.194834825319239
56.8125,0.592950541135047,-3.95028441949611e-05,0.0986223050785809
56.875,0.600322967977757,-5.16995197898296e-05,-1.86225539019341e-05
56.9375,0.59291390188468,-6.25748676522923e-05,-0.0986590896042855
57,0.570907574211798,-7.09925850833763e-05,-0.194870239791651
57.0625,0.534847240208357,-7.59722291048139e-05,-0.286283035142239
57.125,0.485621555915726,-7.67925263155064e-05,-0.370646589596371
57.1875,0.424442566921762,-7.30690516218057e-05,-0.445883593236427
57.25,0.352815873909484,-6.47981958171901e-05,-0.510141462415965
57.3125,0.272503707707649,-5.23633310938297e-05,-0.561837956328474
57.375,0.185481796643967,-3.65033472340453e-05,-0.599700136817207
57.4375,0.0938910420774191,-1.824767605927e-05,-0.622795712143432
57.5,-1.48657230636776e-05,1.17491206106662e-06,-0.630555992960167
57.5625,-0.093924660500732,2.0444331266812e-05,-0.622789895264384
57.625,-0.185526232014208,3.82635934534723e-05,-0.599688645540919
57.6875,-0.272563511942939,5.34691713038859e-05,-0.561821072238133
57.75,-0.352892121046174,6.51276922970223e-05,-0.510119599496393
57.8125,-0.424532390333475,7.26108095552527e-05,-0.445857287979997
57.875,-0.485718411614792,7.56420494528303e-05,-0.370616488106403
57.9375,-0.53494185547609,7.43117733155667e-05,-0.286249877497687
58,-0.570989418111808,6.90590296476777e-05,-0.194834842011719
58.0625,-0.592972920462022,6.06219117697867e-05,-0.0986223236243278
58.125,-0.600351278839551,4.99609072425036e-05,1.86053046739992e-05
58.1875,-0.592943788232756,3.81623804743469e-05,0.0986590766039093
58.25,-0.570934398381124,2.63314561168212e-05,0.194870233284705
58.3125,-0.534866908218235,1.54848502583644e-05,0.286283036274673
58.375,-0.485631246106086,6.45438398461887e-06,0.370646598213005
58.4375,-0.424441232262377,-1.89092733904642e-07,0.44588360790257
58.5,-0.352804428592308,-4.18376046752798e-06,0.510141480660424
58.5625,-0.272484864809088,-5.59225088949295e-06,0.561837975065916
58.625,-0.185459585726932,-4.78327631349759e-06,0.599700152877487
58.6875,-0.0938700925461822,-2.38184412035519e-06,0.62279572281596
58.75,3.01480290799448e-05,8.06386948841036e-07,0.63055599645897
58.8125,0.0939308769972393,3.88854384922679e-06,0.622789891033252
58.875,0.185521595937075,5.98608839769604e-06,0.599688634345671
58.9375,0.27254816624558,6.3341779829072e-06,0.561821056030311
59,0.352868113082883,4.36892083209703e-06,0.510119581072418
59.0625,0.424503307834994,-2.06080500160131e-07,0.445857270495339
59.125,0.485688744710805,-7.3804073742246e-06,0.37061647452956
59.1875,0.534916198246516,-1.68285492821899e-05,0.286249870099283
59.25,0.570971651686849,-2.79334676699911e-05,0.194834841977124
59.3125,0.592965522964239,-3.98397003960698e-05,0.0986223308571034
59.375,0.600354884888981,-5.15308557430393e-05,-1.85921555011306e-05
59.4375,0.592957076335142,-6.1924023868038e-05,-0.0986590598982723
59.5,0.570954326190938,-6.99720817410479e-05,-0.19487021597174
59.5625,0.534889253789913,-7.47642308115766e-05,-0.286283021373014
59.625,0.485651358827598,-7.56154139187097e-05,-0.370646588282916
59.6875,0.424454859884273,-7.21364210061661e-05,-0.445883604602174
59.75,0.352808473252001,-6.42783342819835e-05,-0.510141484463462
59.8125,0.272477933603648,-5.23472596743472e-05,-0.561837985189881
59.875,0.185442237952435,-3.69878218597289e-05,-0.599700167433324
59.9375,0.0938447396892548,-1.91364780887801e-05,-0.622795739151902
60,-5.96716931960674e-05,5.18130923018081e-08,-0.630556011636487
60.0625,-0.093959996762907,1.92977647640922e-05,-0.622789902350545
60.125,-0.185545810566853,3.73050341689139e-05,-0.599688639815746
60.1875,-0.272563848615418,5.28713807478491e-05,-0.561821054729384
60.25,-0.352873155158028,6.49936578598637e-05,-0.510119573297366
60.3125,-0.424497495269062,7.29565645884286e-05,-0.445857257703226
60.375,-0.485673794469518,7.63960335313609e-05,-0.37061645907117
60.4375,-0.534895452610114,7.53301252182371e-05,-0.286249854794384
60.5,-0.570949483117671,7.01532776960534e-05,-0.194834829607567
60.5625,-0.592946555763769,6.15934868085903e-05,-0.0986223236686297
60.625,-0.600343172160923,5.06360637946087e-05,1.85928547671715e-05
60.6875,-0.592955378717855,3.8421503369304e-05,0.0986590539710986
60.75,-0.570963620707637,2.61281351566878e-05,0.194870204475593
60.8125,-0.534908560209601,1.48521411508108e-05,0.286283006370828
60.875,-0.485677914419988,5.49790245799861e-06,0.370646572474248
60.9375,-0.424484611443994,-1.30956191678395e-06,0.44588359084089
61,-0.352836798797937,-5.28088457736972e-06,0.51014147524754
61.0625,-0.272500465280188,-6.48176183165703e-06,0.561837982214363
61.125,-0.185455639649069,-5.31395699624186e-06,0.599700171285397
61.1875,-0.0938473009600235,-2.46044781041847e-06,0.622795749202743
61.25,6.77311239995731e-05,1.19905345099051e-06,0.63055602614904
61.3125,0.0939765661005417,4.69302689244512e-06,0.622789918784232
61.375,0.185567263677787,7.07232966956839e-06,0.599688655274332
61.4375,0.272585689497904,7.52152771627007e-06,0.561821066472734
61.5,0.352890818252071,5.4555187612917e-06,0.510119579226571
61.5625,0.4245071581565,5.91050036756512e-07,0.445857256733316
61.625,0.485673058322357,-7.01466433157777e-06,0.370616451325255
61.6875,0.534883769295171,-1.69624685264089e-05,0.286249841584948
61.75,0.570928252961231,-2.85470193737853e-05,0.194834813208247
61.8125,0.592918878591044,-4.08255932117594e-05,0.0986223069164259
61.875,0.600313295919017,-5.27119815182024e-05,-1.86070562675569e-05
61.9375,0.592927943790668,-6.30847646868951e-05,-0.0986590631604689
62,0.570942834367775,-7.08979651757782e-05,-0.194870207063798
62.0625,0.534897448067832,-7.52824146305929e-05,-0.286283001918032
62.125,0.485677782024947,-7.56279816060866e-05,-0.370646561764488
62.1875,0.42449481179853,-7.16396799576672e-05,-0.445883575741556
62.25,0.352854847146393,-6.33640305089059e-05,-0.510141458379748
62.3125,0.272522480760936,-5.11852863522338e-05,-0.561837966492128
62.375,0.18547703527945,-3.57937979168982e-05,-0.599700159405573
62.4375,0.0938635992597072,-1.81306631545675e-05,-0.622795743175603
62.5,-6.010191097022e-05,6.86095508467946e-07,-0.630556026951937
62.5625,-0.0939796367824355,1.94480520830421e-05,-0.622789926198564
62.625,-0.185581162868376,3.69495656031502e-05,-0.599688667933593
62.6875,-0.272608620611987,5.20813966129825e-05,-0.5618210821118
62.75,-0.352919378862462,6.39182579615289e-05,-0.510119595087126
62.8125,-0.424536944942797,7.17935997600376e-05,-0.445857270052648
62.875,-0.485699450039149,7.53550114428786e-05,-0.370616459821861
62.9375,-0.534902748509521,7.45943020711153e-05,-0.286249843855007
63,-0.570937120397291,6.98478431601256e-05,-0.194834808963652
63.0625,-0.592916733010644,6.1765206366834e-05,-0.0986222970232894
63.125,-0.600301194171206,5.12473402347849e-05,1.86207439837466e-05
63.1875,-0.592908712564366,3.93591019439465e-05,0.0986590781409435
63.25,-0.570920567155018,2.7224320244145e-05,0.194870220639773
63.3125,-0.534876776859226,1.59141088567308e-05,0.286283011679959
63.375,-0.485663053340884,6.34038768214769e-06,0.370646566018549
63.4375,-0.424489313672156,-8.33746358298566e-07,0.445883573806232
63.5,-0.352860224588441,-5.25698144237526e-06,0.510141450698886
63.5625,-0.272538443672146,-6.91929254428646e-06,0.56183795454523
63.625,-0.185501410712709,-6.1449339881644e-06,0.599700145432611
63.6875,-0.0938927186441649,-3.54981473021617e-06,0.62279572976638
63.75,3.07495745997777e-05,3.21762418362386e-08,0.630556016574422
63.8125,0.0939546020537585,3.64625116118844e-06,0.622789920751336
63.875,0.185564226221285,6.32729424904699e-06,0.599688668402875
63.9375,0.272602120066621,7.21263996333968e-06,0.561821088394555
64,0.352923794480262,5.6453846117947e-06,0.510119606012
64.0625,0.424550814032096,1.25719346144517e-06,0.445857283594546
64.125,0.485719628060002,-5.97872543052318e-06,0.370616473471189
64.1875,0.534924969161764,-1.57310374388178e-05,0.286249855075222
64.25,0.570956755165575,-2.73329396874077e-05,0.194834815653846
64.3125,0.592929614984494,-3.98425826982213e-05,0.0986222979026089
64.375,0.600304359556244,-5.21353146824702e-05,-1.86258993198837e-05
64.4375,0.592900927972772,-6.30178429372455e-05,-0.0986590884517747
64.5,0.570902548893557,-7.13515823480403e-05,-0.194870234277689
64.5625,0.53485106323647,-7.61712826497768e-05,-0.28628302619288
64.625,0.485633552744307,-7.67857255443825e-05,-0.370646578770706
64.6875,0.42446060884306,-7.28497438846465e-05,-0.445883582453308
64.75,0.352836756892594,-6.44005936538483e-05,-0.510141453613026
64.8125,0.272523722513562,-5.18561403913402e-05,-0.561837951113687
64.875,0.185497388769883,-3.59766815939e-05,-0.599700136175654
64.9375,0.0938994441142191,-1.77958980340041e-05,-0.622795716252984
65,-1.51418152969213e-05,1.47098272926832e-06,-0.630556001149931
65.0625,-0.0939335587618426,2.05323420157552e-05,-0.622789906125112
65.125,-0.185542162554944,3.81288847106274e-05,-0.599688657168901
65.1875,-0.27258363390335,5.31366985761431e-05,-0.561821082570194
65.25,-0.352912848082846,6.46565355405201e-05,-0.51011960667691
65.3125,-0.424550028695124,7.20825993175438e-05,-0.445857290694356
65.375,-0.485729817285455,7.51457279132617e-05,-0.370616485821033
65.4375,-0.534944993479749,7.39276528906194e-05,-0.286249870563228
65.5,-0.570983724483235,6.88450499028634e-05,-0.194834831608976
65.5625,-0.592959402498049,6.0604396928844e-05,-0.0986223115622276
65.625,-0.600332335807275,5.01311634431517e-05,1.86169049181256e-05
65.6875,-0.592922784443182,3.84793673907741e-05,0.0986590856831847
65.75,-0.570915064591391,2.67297402214101e-05,0.194870238212097
65.8125,-0.534852677865219,1.58862643417239e-05,0.286283036140489
65.875,-0.485624644465722,6.78136972174007e-06,0.370646592996283
65.9375,-0.424443427209815,-5.83831648553589e-10,0.445883598481908
66,-0.352815022884142,-4.17373505289236e-06,0.510141468665084
66.0625,-0.272501966835787,-5.77001867101601e-06,0.561837962593151
66.125,-0.185480146137524,-5.12561571503292e-06,0.599700142124574
66.1875,-0.093890446843283,-2.8362859189222e-06,0.622795715692161
66.25,1.36274709452378e-05,3.13542969117202e-07,0.630555994245947
66.3125,0.0939211355032924,3.44053628063902e-06,0.622789894154359
66.375,0.185520372531008,5.66198348902894e-06,0.599688642285726
66.4375,0.272555684303469,6.19524199370921e-06,0.561821067420918
66.5,0.352883040673535,4.44735855292442e-06,0.510119593928545
66.5625,0.424522994790194,8.60865970548296e-08,0.44585728256231
66.625,0.485709694229588,-6.91479357036178e-06,0.370616483679467
66.6875,0.534934689108136,-1.62606346410895e-05,0.286249874707167
66.75,0.570984400353508,-2.73535568415558e-05,0.19483484121002
66.8125,0.592970267763995,-3.93414765570718e-05,0.0986223248246665
66.875,0.600350788342112,-5.11943407146519e-05,-1.86024158120926e-05
66.9375,0.592944874053873,-6.18005485322963e-05,-0.0986590726003241
67,0.570936195881037,-7.00743216636039e-05,-0.19487022889225
67.0625,0.53486842768698,-7.5063468522969e-05,-0.286283032241677
67.125,0.485631548547759,-7.60467758265871e-05,-0.370646595182415
67.1875,0.424439596036784,-7.26112013873598e-05,-0.445883606307127
67.25,0.352800477314806,-6.47010278025392e-05,-0.510141480658548
67.3125,0.272478633809043,-5.26339207385791e-05,-0.561837976528303
67.375,0.185451515296075,-3.70820859422288e-05,-0.599700155424542
67.4375,0.0938609492257245,-1.90200799004658e-05,-0.622795725897989
67.5,-3.94080837032192e-05,3.56026873010776e-07,-0.630555999463485
67.5625,-0.0939392782457693,1.97307732364572e-05,-0.622789893399288
67.625,-0.18552831698882,3.77833726874761e-05,-0.599688635664522
67.6875,-0.272552685835236,5.33032018008779e-05,-0.561821056114895
67.75,-0.352870302537099,6.52959134919621e-05,-0.510119579983578
67.8125,-0.424503453604965,7.30700355290706e-05,-0.445857268521504
67.875,-0.485687496991565,7.62955123822612e-05,-0.370616472124686
67.9375,-0.534914454855605,7.50281243406066e-05,-0.286249867791126
68,-0.570970397895273,6.96969242914892e-05,-0.194834840263726
68.0625,-0.5929656558117,6.10555144395496e-05,-0.0986223301104103
68.125,-0.600357053277574,5.01017783229602e-05,1.85917607626249e-05
68.1875,-0.592961565387727,3.79741449338515e-05,0.0986590584178783
68.25,-0.570961006479113,2.58351338767862e-05,0.194870213681481
68.3125,-0.534897604482835,1.47544261861207e-05,0.28628301871674
68.375,-0.485660560642103,5.60379080009568e-06,0.370646585788658
68.4375,-0.424463941274879,-1.02515459231181e-06,0.445883602782176
68.5,-0.352816483784255,-4.87197067818983e-06,0.51014148371654
68.5625,-0.272484113600565,-6.02232752116975e-06,0.561837985723854
68.625,-0.185446154159822,-4.88588976022919e-06,0.599700169222054
68.6875,-0.0938463627573351,-2.14011867079387e-06,0.622795741934702
68.75,5.99617446647595e-05,1.35356510513719e-06,0.630556014960572
68.8125,0.0939614780897518,4.65208425241267e-06,0.622789905648871
68.875,0.185547548031484,6.84054316540635e-06,0.599688642506621
68.9375,0.272564860405169,7.1380250536516e-06,0.561821056319963
69,0.352872587801804,4.98828469947047e-06,0.510119573472802
69.0625,0.424494775866451,1.25916327388712e-07,0.445857256385216
69.125,0.485668733008419,-7.38878431249797e-06,0.370616456435484
69.1875,0.534888276142026,-1.71696535854933e-05,0.286249851243905
69.25,0.570940795696089,-2.85387983433827e-05,0.19483482570577
69.3125,0.592937231266335,-4.05909275708858e-05,0.0986223200444147
69.375,0.600334199056374,-5.22805854069368e-05,-1.85956136257298e-05
69.4375,0.592947684381462,-6.25227760247097e-05,-0.0986590554175807
69.5,0.570957906518114,-7.02964914712373e-05,-0.194870204378845
69.5625,0.534905176737121,-7.47409742068171e-05,-0.286283004753973
69.625,0.485676798886137,-7.52359989177137e-05,-0.370646569608734
69.6875,0.424485298571234,-7.14596912337251e-05,-0.445883587198329
69.75,0.352838503134491,-6.34199747498657e-05,-0.510141471418077
69.8125,0.272502220398995,-5.1458242098473e-05,-0.561837978805828
69.875,0.185456469525195,-3.62259992591276e-05,-0.599700168821477
69.9375,0.0938463931178566,-1.86369305754384e-05,-0.622795748037438
70,-7.08814226445948e-05,2.01865993435417e-07,-0.630556026412088
70.0625,-0.093982066226669,1.90746643462953e-05,-0.622789920366373
70.125,-0.185574804490684,3.67521364808074e-05,-0.599688657853989
70.1875,-0.272594600109738,5.20898911308746e-05,-0.561821069578455
70.25,-0.35290018500681,6.41229438612504e-05,-0.510119582323412
70.3125,-0.424515986720433,7.21479928549578e-05,-0.445857259317218
70.375,-0.485680450113506,7.57854331561905e-05,-0.370616453008795
70.4375,-0.534889080913967,7.50139890997558e-05,-0.286249842159382
70.5,-0.570931210288063,7.01728469747089e-05,-0.19483481267143
70.5625,-0.592919625261789,6.19291875695831e-05,-0.0986223054628993
70.625,-0.600312367552964,5.1212764310928e-05,1.860908050412e-05
70.6875,-0.592926172553924,3.91231419257132e-05,0.0986590653287236
70.75,-0.570941200857618,2.68187745719282e-05,0.194870208952188
70.8125,-0.534896906886416,1.53996495412022e-05,0.286283003185315
70.875,-0.485679092097739,5.79630209473077e-06,0.370646562213754
70.9375,-0.424498401643362,-1.32256802479305e-06,0.445883575353021
71,-0.35286073906265,-5.61376785282116e-06,0.510141457308279
71.0625,-0.272530287397709,-7.08776587422815e-06,0.561837965031061
71.125,-0.185486029134452,-6.09851365471301e-06,0.599700157924078
71.1875,-0.0938728426630471,-3.29625884538099e-06,0.622795742041454
71.25,5.15895411837344e-05,4.51487610275953e-07,0.63055602645495
71.3125,0.0939727042432643,4.16246527039149e-06,0.622789926489514
71.375,0.185576376156807,6.8549460012573e-06,0.599688668990481
71.4375,0.272606162458655,7.66371497640879e-06,0.561821083740366
71.5,0.352919016646423,5.94441947581413e-06,0.510119596955886
71.5625,0.424538072622286,1.35486392054883e-06,0.445857271756386
71.625,0.485701196551594,-6.09605374011189e-06,0.370616460961524
71.6875,0.534904133274844,-1.60378111175162e-05,0.286249844119114
71.75,0.570937228200525,-2.77680115152741e-05,0.194834808195353
71.8125,0.592914877121722,-4.03196324559175e-05,0.0986222952599637
71.875,0.600297038680349,-5.25584471287809e-05,-1.86232669957126e-05
71.9375,0.592902332185584,-6.32995529801374e-05,-0.0986590810244757
72,0.570912433880666,-7.14296308343711e-05,-0.194870223387117
72.0625,0.53486767585678,-7.60210855490092e-05,-0.286283013784335
72.125,0.485653943060838,-7.64256586830297e-05,-0.370646567055717
72.1875,0.424481155052733,-7.23381597342375e-05,-0.445883573515711
72.25,0.35285380974087,-6.38250395898437e-05,-0.510141449038442
72.3125,0.272534254533185,-5.13168824513596e-05,-0.561837951708123
72.375,0.185499532838742,-3.55678105943883e-05,-0.599700141823368
72.4375,0.0938928255317459,-1.75877663123759e-05,-0.622795725938638
72.5,-2.93387894315543e-05,1.44456949841189e-06,-0.630556013140899
72.5625,-0.0939528017181157,2.02797825939876e-05,-0.622789918281138
72.625,-0.185563021565051,3.76983837089089e-05,-0.599688667323894
72.6875,-0.272602391785169,5.26065199430605e-05,-0.561821088918099
72.75,-0.352926161722353,6.41200124140179e-05,-0.510119608092815
72.8125,-0.424555523774602,7.16309078204933e-05,-0.445857286933781
72.875,-0.485726510622041,7.48516939781842e-05,-0.370616477562345
72.9375,-0.5349334678516,7.38334783512274e-05,-0.286249859285253
73,-0.570966024855588,6.89559475637287e-05,-0.194834819326606
73.0625,-0.592938672124597,6.08889358254709e-05,-0.0986223004665129
73.125,-0.600312256957456,5.05278995520096e-05,1.86248373113887e-05
73.1875,-0.592906923261052,3.89083004355143e-05,0.098659089041996
73.25,-0.570906236644186,2.71064525171566e-05,0.194870236403987
73.3125,-0.534852447255719,1.6136329948753e-05,0.286283029493944
73.375,-0.485633045617414,6.85275175016375e-06,0.370646582702072
73.4375,-0.42445895881551,-1.28985063106073e-07,0.44588358637972
73.5,-0.352834915085729,-4.48857052269205e-06,0.510141456915217
73.5625,-0.272522674090345,-6.22545625985916e-06,0.561837953290978
73.625,-0.185497978072253,-5.65046600009821e-06,0.599700136927129
73.6875,-0.0939022248527815,-3.34526833677606e-06,0.622795715523211
73.75,1.00047090632127e-05,-9.39913648689002e-08,0.630555999131847
73.8125,0.0939263182096325,3.20605927658097e-06,0.622789903220053
73.875,0.1855334442071,5.64569867689718e-06,0.599688653911387
73.9375,0.272574324877229,6.40721896908911e-06,0.561821079531149
74,0.352903939367747,4.85961562079264e-06,0.510119604362769
74.0625,0.424542439241685,6.36096939625583e-07,0.445857289459866
74.125,0.485724231028869,-6.31429514071292e-06,0.370616485811295
74.1875,0.534941738225926,-1.57069237304337e-05,0.286249871694694
74.25,0.570982714132117,-2.6936713129345e-05,0.194834833592256
74.3125,0.592960152815514,-3.91278277040751e-05,0.0986223139618372
74.375,0.60033405088837,-5.12137872281424e-05,-1.86145850311972e-05
74.4375,0.592924498455195,-6.20404253901267e-05,-0.0986590839045922
74.5,0.570915813574324,-7.0481264029365e-05,-0.194870237314972
74.5625,0.534851671040337,-7.55531688349578e-05,-0.286283036280476
74.625,0.485621404605421,-7.65198849771093e-05,-0.370646594117063
74.6875,0.424437875134733,-7.29723089056428e-05,-0.445883600327826
74.75,0.352807491096575,-6.48769658116574e-05,-0.51014147083204
74.8125,0.272493139904675,-5.25877429011388e-05,-0.561837964607584
74.875,0.185470938478549,-3.68199579858968e-05,-0.599700143536079
74.9375,0.0938818396715655,-1.85897832473693e-05,-0.622795716162595
75,-2.07609793345471e-05,8.74562073097025e-07,-0.630555993618006
75.0625,-0.0939261857124124,2.02409022913549e-05,-0.622789892486893
75.125,-0.18552310182764,3.81900097142528e-05,-0.599688639848645
75.1875,-0.272556269254461,5.35303587361679e-05,-0.561821064650048
75.25,-0.352882040362488,6.53002218684649e-05,-0.510119591348291
75.3125,-0.424521250984657,7.28478901502994e-05,-0.445857280689536
75.375,-0.485708181171245,7.58827993981486e-05,-0.370616482926179
75.4375,-0.53493433969254,7.44929266680549e-05,-0.286249875299666
75.5,-0.570985939674355,6.91268465111061e-05,-0.194834843139531
75.5625,-0.59297408368896,6.05421156774675e-05,-0.0986223278394148
75.625,-0.600356862194813,4.97249295927316e-05,1.85987751113864e-05
75.6875,-0.592952783772172,3.77889371779744e-05,0.0986590689266228
75.75,-0.570945191111032,2.58633530742202e-05,0.194870225812445
75.8125,-0.534877563453777,1.49817417335996e-05,0.286283030307974
75.875,-0.485639853701522,5.98284856065975e-06,0.370646594773842
75.9375,-0.424446246466858,-5.66429695265935e-07,0.445883607558854
76,-0.352804943062979,-4.41826889496902e-06,0.510141483431587
76.0625,-0.272480773850706,-5.65693053940593e-06,0.561837980425914
76.125,-0.185451603071196,-4.67684147894811e-06,0.599700159853001
76.1875,-0.093859624332486,-2.12867876606042e-06,0.622795730162156
76.25,4.1253467242618e-05,1.16036743858584e-06,0.630556002881077
76.3125,0.0939406580157556,4.2834898507307e-06,0.622789895414545
76.375,0.185528326612891,6.35811990951351e-06,0.599688635941819
76.4375,0.272550663451685,6.62606427648125e-06,0.561821054596232
76.5,0.352865946969693,4.53982152098933e-06,0.510119576899845
76.5625,0.42449687827149,-1.73467789013214e-07,0.445857264355508
76.625,0.48567921009184,-7.47661858676191e-06,0.370616467531863
76.6875,0.534905269343246,-1.70187848413255e-05,0.286249863491768
76.75,0.570961287230215,-2.8163645460705e-05,0.194834836924339
76.8125,0.592957581133734,-4.0046245160576e-05,0.098622328234948
76.875,0.600350792719709,-5.16525800149237e-05,-1.85919115726144e-05
76.9375,0.592957575861788,-6.19139539721625e-05,-0.0986590568660664
77,0.570959342487015,-6.9806972614303e-05,-0.194870210722983
77.0625,0.534897908367415,-7.44498556422298e-05,-0.286283014867012
77.125,0.485662125997003,-7.51864698027286e-05,-0.370646581692128
77.1875,0.424465838240674,-7.16509221126445e-05,-0.445883599101716
77.25,0.352817723975366,-6.38074593988791e-05,-0.510141481021931
77.3125,0.27248382538135,-5.19625472205796e-05,-0.561837984398994
77.375,0.185443737162356,-3.67481597042364e-05,-0.599700169406047
77.4375,0.0938415942275163,-1.9077394602692e-05,-0.622795743506693
77.5,-6.68876300858539e-05,-7.54989896947328e-08,-0.630556017569992
77.5625,-0.0939699848940023,1.90087552582911e-05,-0.62278990878477
77.625,-0.185556779544192,3.69046984686443e-05,-0.599688645593114
77.6875,-0.272573832736847,5.2426274244779e-05,-0.561821058820319
77.75,-0.352880364073641,6.45742570178907e-05,-0.510119574983415
77.8125,-0.424500632470133,7.26245856211771e-05,-0.445857256703204
77.875,-0.485672287905558,7.61936982041878e-05,-0.370616455587951
77.9375,-0.534889556413319,7.52732926592106e-05,-0.286249849474774
78,-0.570940232343896,7.02295682472112e-05,-0.194834823423262
78.0625,-0.592935582206994,6.17655577970537e-05,-0.0986223177392855
78.125,-0.600332414012514,5.0849254025924e-05,1.8597463324721e-05
78.1875,-0.592946735726807,3.86143202530017e-05,0.0986590564379018
78.25,-0.57095861619328,2.62436382709566e-05,0.194870204370516
78.3125,-0.534908070058843,1.4848227132559e-05,0.28628300372943
78.375,-0.485682011283382,5.35479126001801e-06,0.370646567788638
78.4375,-0.424492551848609,-1.58578652960855e-06,0.445883584968629
78.5,-0.352847155466632,-5.65913575536754e-06,0.510141469255537
78.5625,-0.272511381110903,-6.91095880729517e-06,0.561837977185608
78.625,-0.185465158161013,-5.7313079553726e-06,0.599700168124068
78.6875,-0.0938537144084552,-2.80166803172206e-06,0.622795748472052
78.75,6.55779053775226e-05,9.89190789770244e-07,0.630556027971255
78.8125,0.0939790701914707,4.65145710094595e-06,0.622789922820328
78.875,0.185573993460463,7.21125868357323e-06,0.599688660786793
78.9375,0.272595461501088,7.82589013143594e-06,0.561821072459778
79,0.352901907769653,5.88487469881056e-06,0.510119584603633
79.0625,0.424517606156383,1.08578130406231e-06,0.445857260528887
79.125,0.485681020029721,-6.52372093489412e-06,0.370616452855735
79.1875,0.534887842422152,-1.65424611188631e-05,0.286249840577381
79.25,0.570927727181316,-2.82515495507239e-05,0.194834809848834
79.3125,0.592913861875098,-4.06852953201687e-05,0.0986223018160345
79.375,0.600304695264787,-5.27290342452021e-05,-1.86129729985579e-05
79.4375,0.59291730378823,-6.3232515760984e-05,-0.0986590688221179
79.5,0.570932062338309,-7.11259235997944e-05,-0.194870211445975
79.5625,0.5348884746911,-7.5525825167431e-05,-0.286283004227984
79.625,0.485672217842642,-7.58202590461556e-05,-0.370646561584031
79.6875,0.424493660706404,-7.17253552776433e-05,-0.445883573102574
79.75,0.352858327841017,-6.33096977513322e-05,-0.51014145375825
79.8125,0.272529987894516,-5.09863894247073e-05,-0.561837960722328
79.875,0.185487247218071,-3.54758975826002e-05,-0.599700153529582
79.9375,0.0938747132596466,-1.77449116147374e-05,-0.622795738255512
80,-5.00489580242642e-05,1.07239997588509e-06,-0.630556023878224
80.0625,-0.0939724191012187,1.97639943527516e-05,-0.622789925529457
80.125,-0.185578050179145,3.71338055384888e-05,-0.59968866979412
80.1875,-0.272610152279811,5.20935082135669e-05,-0.561821086170847
80.25,-0.352925267986961,6.37461046887308e-05,-0.510119600616534
80.3125,-0.42454612944208,7.14554411258121e-05,-0.445857276057895
80.375,-0.485710281633135,7.48960693538145e-05,-0.37061646522081
80.4375,-0.534913285978144,7.40785625959334e-05,-0.286249847672645
80.5,-0.570945474940778,6.9346724583147e-05,-0.194834810507664
80.5625,-0.592921404271652,6.13452321182481e-05,-0.0986222960092412
80.625,-0.600301337140546,5.09590393304043e-05,1.86241407575116e-05
80.6875,-0.592904287888212,3.92290332191305e-05,0.0986590833158274
80.75,-0.570912348104973,2.72514721532795e-05,0.194870226666776
80.8125,-0.534866211727598,1.60711083401529e-05,0.286283017477448
80.875,-0.485652007745191,6.57912025468798e-06,0.37064657054304
80.9375,-0.424479738619121,-5.73205021103741e-07,0.445883576240148
81,-0.352853809356519,-5.03569506212127e-06,0.510141450597742
81.0625,-0.272536315272507,-6.78882533137185e-06,0.561837951918526
81.125,-0.18550393340051,-6.13843918015241e-06,0.599700140743249
81.1875,-0.0938994291492992,-3.67623801849452e-06,0.62279572384889
81.25,2.10595774750926e-05,-2.10124033095178e-07,0.630556010486319
81.3125,0.0939436709152477,3.32855851863895e-06,0.62278991558419
81.375,0.185554012993403,5.99160896935948e-06,0.599688665086679
81.4375,0.272594455928026,6.92371855783849e-06,0.561821087530686
81.5,0.35292005693536,5.46422303430538e-06,0.510119607764439
81.5625,0.424551681853259,1.23015356532941e-06,0.445857287659201
81.625,0.48572496057117,-5.82867112672883e-06,0.370616479128933
81.6875,0.534933831333458,-1.5409308032578e-05,0.286249861319287
81.75,0.570967584044111,-2.68735159598978e-05,0.194834821368977
81.8125,0.592940497829961,-3.93030758490145e-05,0.0986223020644803
81.875,0.600313374189825,-5.15876011395122e-05,-1.86240408475979e-05
81.9375,0.592906484770302,-6.25358172682282e-05,-0.098659089237576
82,0.570903673576599,-7.09982209053234e-05,-0.19487023757707
82.0625,0.534847570153456,-7.59874484386011e-05,-0.286283031425569
82.125,0.485626077825124,-7.67828987196014e-05,-0.370646585009182
82.1875,0.424450496380926,-7.30081563969042e-05,-0.445883588587328
82.25,0.352825820313456,-6.4673211664266e-05,-0.510141458547363
82.3125,0.272513921708542,-5.21777854760399e-05,-0.561837953963734
82.375,0.185490481403619,-3.62765550610578e-05,-0.59970013642596
82.4375,0.0938966729437479,-1.80110912315105e-05,-0.622795713850254
82.5,-1.32699903150817e-05,1.38360105424922e-06,-0.630555996513919
82.5625,-0.0939273632034107,2.0588135048339e-05,-0.622789900075007
82.625,-0.185532731728534,3.83128409821545e-05,-0.599688650778377
82.6875,-0.272572631783761,5.34066287114369e-05,-0.56182107697664
82.75,-0.352902218090559,6.49513649559318e-05,-0.510119602878918
82.8125,-0.42454164793676,7.2334092073432e-05,-0.445857289373428
82.875,-0.485725162609306,7.52913729211538e-05,-0.370616487219398
82.9375,-0.534944878753131,7.39222974797156e-05,-0.286249874439587
83,-0.570988155826948,6.86691843938895e-05,-0.194834837280464
83.0625,-0.592967577228618,6.02676910959331e-05,-0.0986223180246824
83.125,-0.600342785272099,4.96707755300821e-05,1.86107988296297e-05
83.1875,-0.592933635334855,3.79535002687194e-05,0.0986590810200373
83.25,-0.570924372249167,2.62077278973458e-05,0.194870235824513
83.3125,-0.53485877226413,1.54370011457455e-05,0.286283036458358
83.375,-0.485626427336111,6.46207702033368e-06,0.370646595969487
83.4375,-0.42444056742458,-1.53418271042012e-07,0.445883603588245
83.5,-0.35280801535114,-4.14984891662992e-06,0.510141475002207
83.5625,-0.272492044418807,-5.58652180791727e-06,0.561837969038096
83.625,-0.185469060279686,-4.82370750443437e-06,0.599700147533033
83.6875,-0.0938801559284243,-2.47412517567476e-06,0.622795719101691
83.75,2.13065671498946e-05,6.7067236472916e-07,0.630555995047292
83.8125,0.0939248506717669,3.73122237923095e-06,0.622789892200328
83.875,0.185519476980462,5.83911059463105e-06,0.599688637918124
83.9375,0.272550351605685,6.23414699038274e-06,0.561821061410668
84,0.352874233838151,4.35031083290897e-06,0.510119587339498
84.0625,0.424512294879253,-1.17794105193006e-07,0.445857276562754
84.125,0.485699019015105,-7.17435592403908e-06,0.370616479334997
84.1875,0.534925951839676,-1.65116169282247e-05,0.286249872791078
84.25,0.570979169355863,-2.75302020275245e-05,0.194834842065776
84.3125,0.592969487432028,-3.93888453571745e-05,0.0986223283044222
84.375,0.600354611169526,-5.10790688286719e-05,-1.85969259927088e-05
84.4375,0.592952633570954,-6.15179577632987e-05,-0.0986590660717328
84.5,0.570946525301318,-6.9650388987017e-05,-0.194870222481677
84.5625,0.534879503137302,-7.45510934442787e-05,-0.286283027086402
84.625,0.485641413593262,-7.55168882843296e-05,-0.370646592198158
84.6875,0.424446509755063,-7.21402919389784e-05,-0.445883606025255
84.75,0.352803223992065,-6.43574321219362e-05,-0.510141483131608
84.8125,0.272476739167466,-5.24654809457051e-05,-0.561837981320059
84.875,0.185445330797208,-3.71075701775154e-05,-0.599700161686987
84.9375,0.0938515894681647,-1.92260137570868e-05,-0.622795732521692
85,-5.02637196080364e-05,1.25264520365396e-08,-0.63055600527414
85.0625,-0.0939496844065025,1.93137465511689e-05,-0.622789897366147
85.125,-0.185536408445125,3.73659782174378e-05,-0.599688637083342
85.1875,-0.272557009297641,5.29542232340818e-05,-0.561821054733092
85.25,-0.352870075164483,6.50673760590222e-05,-0.510119576045293
85.3125,-0.424498702225294,7.29882186191223e-05,-0.445857262724242
85.375,-0.485679053275886,7.63569366246619e-05,-0.370616465495886
85.4375,-0.53490380731114,7.52011073043885e-05,-0.286249861506058
85.5,-0.570959427013616,6.99282443993216e-05,-0.194834835436627
85.5625,-0.59295629949328,6.12808046063694e-05,-0.0986223275972005
85.625,-0.600350962056333,5.02576559468776e-05,1.85915144561843e-05
85.6875,-0.592959808793969,3.80098682610679e-05,0.0986590554558831
85.75,-0.570963882780435,2.57217664400648e-05,0.194870208529265
85.8125,-0.534904587650838,1.44900222101643e-05,0.286283012288087
85.875,-0.485670393978079,5.21386066882062e-06,0.370646579223673
85.9375,-0.424474861034076,-1.49182638209947e-06,0.445883597245119
86,-0.35282653300858,-5.3513409418157e-06,0.510141480189013
86.0625,-0.272491490319076,-6.44556437060651e-06,0.56183798483104
86.125,-0.185449532001618,-5.1905920251312e-06,0.599700171121577
86.1875,-0.0938451269306563,-2.28051093691649e-06,0.622795746288888
86.25,6.56050931651372e-05,1.39905920305187e-06,0.630556020996409
86.3125,0.0939705385904373,4.87709880465283e-06,0.622789912295244
86.375,0.185558427343943,7.21150900136614e-06,0.599688648584401
86.4375,0.272575636640087,7.59937772935274e-06,0.561821060751302
86.5,0.352881357498644,5.47142735469645e-06,0.510119575472221
86.5625,0.424499992673755,5.6057957677631e-07,0.445857255599068
86.625,0.485669482803391,-7.06262371628354e-06,0.370616453004529
86.6875,0.534884439639923,-1.69913463106529e-05,0.286249845778121
86.75,0.57093306962377,-2.85200067550026e-05,0.194834819176026
86.8125,0.592927004343595,-4.07134385987057e-05,0.0986223136100221
86.875,0.600323304864258,-5.24995533752718e-05,-1.8600810782643e-05
86.9375,0.592938075100481,-6.27749957648687e-05,-0.0986590584558103
87,0.570951305593985,-7.05123079178823e-05,-0.194870204720038
87.0625,0.534902772274013,-7.48576600254929e-05,-0.286283002339276
87.125,0.485679032313119,-7.52100587843925e-05,-0.37064656486862
87.1875,0.424491786169911,-7.12756840539647e-05,-0.445883580975865
87.25,0.352848104373428,-6.30940774248712e-05,-0.510141464819176
87.3125,0.272513240901139,-5.10357910121756e-05,-0.561837973002562
87.375,0.185466962545496,-3.57734305399921e-05,-0.599700164843859
87.4375,0.093854505888897,-1.82296488186619e-05,-0.622795746590542
87.5,-6.65780939619594e-05,4.93360759422353e-07,-0.630556027750991
87.5625,-0.0939823237415014,1.91977337984292e-05,-0.622789924251123
87.625,-0.185579562835142,3.66815927963885e-05,-0.599688663592561
87.6875,-0.272602998586322,5.18324509603956e-05,-0.561821076149991
87.75,-0.352910715400803,6.3715797526109e-05,-0.510119588559903
87.8125,-0.424526761645782,7.16518731327161e-05,-0.445857264111054
87.875,-0.485689538796285,7.52735917558473e-05,-0.370616455509537
87.9375,-0.534894852677495,7.45592061080907e-05,-0.286249841924702
88,-0.5709326246358,6.98348843063933e-05,-0.194834809745389
88.0625,-0.592916416955263,6.17449196755336e-05,-0.0986223003676725
88.125,-0.600305093762387,5.11906395923937e-05,1.8615437579951e-05
88.1875,-0.5929161136965,3.92427819268692e-05,0.0986590718170158
88.25,-0.570930132768022,2.70355807597406e-05,0.194870214418606
88.3125,-0.534886784854858,1.56534355234339e-05,0.286283006659163
88.375,-0.485671702990973,6.02234361402862e-06,0.37064656307944
88.4375,-0.424495046002496,-1.18198867277191e-06,0.445883573458865
88.5,-0.352861999738124,-5.59923359334504e-06,0.510141452993247
88.5625,-0.272535925884532,-7.21561930124579e-06,0.561837959064235
88.625,-0.185495028048986,-6.3578590546696e-06,0.599700151367538
88.6875,-0.0938835867995473,-3.65050760169815e-06,0.622795736061336
88.75,4.10257939798205e-05,5.87794949751277e-08,0.630556022114123
88.8125,0.093964214269803,3.7983624805931e-06,0.622789924558631
88.875,0.185571484234334,6.58592487890825e-06,0.599688669811229
88.9375,0.272605752570949,7.54424949690605e-06,0.561821087164861
89,0.352923175241757,6.0072390888913e-06,0.510119602373377
89.0625,0.42454607328771,1.60458704454242e-06,0.445857278202094
89.125,0.485711629321176,-5.68467120118387e-06,0.370616467288249
89.1875,0.534915155552865,-1.55164922909654e-05,0.286249849201556
89.25,0.570946892641912,-2.72068009739809e-05,0.194834811130272
89.3125,0.592921478122328,-3.97952212318628e-05,0.0986222955263649
89.375,0.600299415823933,-5.21409709534906e-05,-1.86257149997412e-05
89.4375,0.592900076660021,-6.30402570859903e-05,-0.0986590857496838
89.5,0.57090596114717,-7.13517485798261e-05,-0.194870229547674
89.5625,0.534858151657793,-7.61157548574229e-05,-0.286283020283257
89.625,0.48564307594823,-7.66537781800062e-05,-0.370646572736363
89.6875,0.424470892364434,-7.26379409492902e-05,-0.445883577367684
89.75,0.352845991126291,-6.41238788023386e-05,-0.510141450377293
89.8125,0.272530284672314,-5.15452983747669e-05,-0.561837950296953
89.875,0.185500131576592,-3.56727637973986e-05,-0.599700137914855
89.9375,0.0938978998701282,-1.75427882624788e-05,-0.622795720229845
90,-2.06780837210488e-05,1.63437858596323e-06,-0.630556006648908
90.0625,-0.093942081857447,2.05788117838775e-05,-0.622789912161919
90.125,-0.185552136002446,3.80473627155149e-05,-0.599688662666452
90.1875,-0.272593263341961,5.29337872475508e-05,-0.561821086550676
90.25,-0.352920400512658,6.43550043787266e-05,-0.510119608435618
90.3125,-0.424554140778816,7.17173024491535e-05,-0.4458572899244
90.375,-0.485729737859345,7.47577777363823e-05,-0.370616482667064
90.4375,-0.534940717137087,7.35578975889611e-05,-0.286249865594438
90.5,-0.570975992474249,6.85279215409546e-05,-0.194834825716501
90.5625,-0.592949570797136,6.03630539269411e-05,-0.0986223057996576
90.625,-0.600322133828309,4.9974595149752e-05,1.86215097743234e-05
90.6875,-0.592914007335919,3.84018116944691e-05,0.098659088311604
90.75,-0.570909253864929,2.6712432752649e-05,0.194870238399731
90.8125,-0.534850847157683,1.59012233911517e-05,0.28628303385952
90.875,-0.485627099244463,6.79664861750741e-06,0.370646588659504
90.9375,-0.424449710473117,-1.49553656263483e-08,0.445883592868007
91,-0.352823996517652,-4.24002598974988e-06,0.510141462779145
91.0625,-0.272512014142673,-5.89821380185741e-06,0.56183795748693
91.125,-0.185489459504211,-5.31079216987019e-06,0.599700138708645
91.1875,-0.0938973493577042,-3.05851925747611e-06,0.62279571457377
91.25,1.03836704723386e-05,8.65478890984868e-08,0.630555995621149
91.3125,0.093922147228947,3.2483559229878e-06,0.622789897773653
91.375,0.18552547939113,5.54466976401911e-06,0.599688647499283
91.4375,0.272563997276273,6.18593773196903e-06,0.561821073295089
91.5,0.35289310032071,4.56569089741485e-06,0.510119599412963
91.5625,0.424533030956003,3.33661532398507e-07,0.44585728667749
91.625,0.485717941014496,-6.5557857303735e-06,0.370616485691515
91.6875,0.534939699071914,-1.58252509147193e-05,0.286249874258593
91.75,0.57098530204118,-2.68886207827909e-05,0.194834838383239
91.8125,0.592966920734638,-3.88977342666393e-05,0.0986223201267454
91.875,0.600343808120451,-5.08177364891838e-05,-1.86081439636915e-05
91.9375,0.592935522571631,-6.15243367467339e-05,-0.0986590783342658
92,0.57092615690992,-6.99135963534072e-05,-0.194870233607231
92.0625,0.534859507228443,-7.50132069669137e-05,-0.286283035095583
92.125,0.485625353494629,-7.60837628099881e-05,-0.37064659566595
92.1875,0.424437248283728,-7.26993933926529e-05,-0.445883604334818
92.25,0.352802414181917,-6.47992160258463e-05,-0.510141476583718
92.3125,0.272484530280418,-5.27041139638169e-05,-0.561837971079808
92.375,0.185460341897904,-3.70969464307878e-05,-0.599700149576548
92.4375,0.0938711552339397,-1.8968008932519e-05,-0.622795720695842
92.5,-2.96187129433931e-05,4.69021806720601e-07,-0.630555995836975
92.5625,-0.0939316273223334,1.98826246838422e-05,-0.622789891996613
92.625,-0.185524145766921,3.79404493765261e-05,-0.599688636736512
92.6875,-0.272552716419068,5.34267786667158e-05,-0.561821059470287
92.75,-0.352874509454862,6.53493576985977e-05,-0.510119585023112
92.8125,-0.424511068389544,7.30254242677964e-05,-0.445857274344997
92.875,-0.485697144942459,7.61385976059181e-05,-0.370616477691821
92.9375,-0.534924399642164,7.47609167518975e-05,-0.286249872107104
93,-0.570978850478741,6.93376002769281e-05,-0.194834842556995
93.0625,-0.592971092724559,6.06357766785451e-05,-0.0986223299705514
93.125,-0.600358487637807,4.96621639193947e-05,1.8594309870841e-05
93.1875,-0.592958722437505,3.75580382327407e-05,0.0986590629221337
93.25,-0.570954372425107,2.54823899041147e-05,0.194870219337389
93.3125,-0.534888339956416,1.44955436447182e-05,0.286283024515014
93.375,-0.485650294182145,5.45549625843286e-06,0.370646590694088
93.4375,-0.424454479579006,-1.06222981134392e-06,0.445883605918402
93.5,-0.35280949027968,-4.81311188789575e-06,0.510141484522625
93.5625,-0.272480812519465,-5.89599442469998e-06,0.561837984054408
93.625,-0.185447112764652,-4.72873913691672e-06,0.599700165373342
93.6875,-0.093851390456467,-1.99050600357061e-06,0.622795736592059
93.75,5.17794473956724e-05,1.46257455579475e-06,0.63055600907631
93.8125,0.0939516168566985,4.6989868738307e-06,0.622789900272539
93.875,0.185537782121878,6.81976432398678e-06,0.599688638597899
93.9375,0.272556946993499,7.06144711760189e-06,0.561821054577404
94,0.352867954351158,4.88346704679822e-06,0.510119574209179
94.0625,0.4244942661792,3.11523360536025e-08,0.445857259471395
94.125,0.485672457135326,-7.4317821783069e-06,0.370616461323202
94.1875,0.534895590850305,-1.71241112446259e-05,0.286249857063269
94.25,0.570950418965525,-2.83806536760539e-05,0.194834831420026
94.3125,0.592947470434438,-4.03144276891068e-05,0.0986223246345667
94.375,0.600343252012156,-5.19004983046674e-05,-1.85929669955578e-05
94.4375,0.592953960211506,-6.20726729931305e-05,-0.0986590551881997
94.5,0.570960308550748,-6.98233647061368e-05,-0.194870206610107
94.5625,0.534903297625401,-7.42972225634178e-05,-0.286283009050691
94.625,0.485670993026029,-7.48703659851614e-05,-0.370646575207242
94.6875,0.424476618980811,-7.12089467960322e-05,-0.445883593102358
94.75,0.352828514037845,-6.33029498655345e-05,-0.510141476575912
94.8125,0.272492718872965,-5.14733097375262e-05,-0.561837982297785
94.875,0.185449165743163,-3.63523646698587e-05,-0.599700170023886
94.9375,0.0938426060854688,-1.88393282151184e-05,-0.622795746733945
95,-7.04585079309858e-05,-3.3888149815587e-08,-0.630556022832606
95.0625,-0.0939774892535839,1.8847645570015e-05,-0.622789915146447
95.125,-0.185566868428401,3.65679418534259e-05,-0.599688651921904
95.1875,-0.272584697511413,5.19690544271448e-05,-0.561821063990125
95.25,-0.352890058207975,6.40696175425165e-05,-0.510119578074311
95.3125,-0.424507417827297,7.21501619717427e-05,-0.445857257165182
95.375,-0.485674943939126,7.58179443817972e-05,-0.37061645333878
95.4375,-0.534887597270145,7.50437272001143e-05,-0.286249844914608
95.5,-0.570933993255942,7.01651032966215e-05,-0.194834817363354
95.5625,-0.592926159808152,6.18541518114694e-05,-0.098622311257804
95.625,-0.600321471202375,5.10511200281452e-05,1.86032133563246e-05
95.6875,-0.592936205800016,3.88699267247377e-05,0.0986590604336345
95.75,-0.570950358873826,2.64849393448525e-05,0.1948702059011
95.8125,-0.534903540635211,1.50110803195724e-05,0.286283002522648
95.875,-0.485682001709665,5.39041984146533e-06,0.37064656405923
95.9375,-0.424497049872955,-1.70217129824969e-06,0.445883579380042
96,-0.352855346848883,-5.92389702336793e-06,0.51014146280193
96.0625,-0.272521794531988,-7.29241326064933e-06,0.561837971015041
96.125,-0.185475927037814,-6.17478861911983e-06,0.599700163334214
96.1875,-0.0938629090267914,-3.23842638008814e-06,0.62279574591508
96.25,5.96070386359455e-05,6.30659907956894e-07,0.630556028102139
96.3125,0.0939773988712793,4.43345481328683e-06,0.622789925615974
96.375,0.185576932399474,7.17619935215459e-06,0.59968866575007
96.4375,0.272602501088553,7.98866841669331e-06,0.561821078707956
96.5,0.352911808796123,6.22964242094799e-06,0.510119591025381
96.5625,0.424528620352876,1.56784169540208e-06,0.445857265981835
96.625,0.485691201171157,-5.97101573551029e-06,0.37061645636977
96.6875,0.534895392631744,-1.59967985920226e-05,0.286249841527297
96.75,0.570931316813052,-2.7788497921831e-05,0.194834808065318
96.8125,0.592912866058279,-4.03651821902571e-05,0.0986222976160741
96.875,0.600299305029243,-5.25862725978029e-05,-1.8618842350264e-05
96.9375,0.592908492010047,-6.3269450485782e-05,-0.0986590753170171
97,0.570921410580582,-7.13124995406373e-05,-0.194870217411014
97.0625,0.534877891764058,-7.58052981028936e-05,-0.28628300860191
97.125,0.485663600169102,-7.61199934533782e-05,-0.370646563588753
97.1875,0.424488554925232,-7.19707236269845e-05,-0.445883572381365
97.25,0.352857655674493,-6.34384414450871e-05,-0.510141450439305
97.3125,0.272533882219744,-5.09606713596444e-05,-0.561837955396205
97.375,0.185495028492518,-3.52897074706485e-05,-0.599700147143871
97.4375,0.0938850104787942,-1.74253914627879e-05,-0.622795731946295
97.5,-3.90543039095917e-05,1.46995039467807e-06,-0.630556018767982
97.5625,-0.0939626694812244,2.01664413332279e-05,-0.622789922527262
97.625,-0.185571266449258,3.74638255361964e-05,-0.59968866943395
97.6875,-0.27260752755872,5.22839375292837e-05,-0.561821088516574
97.75,-0.352927255432864,6.37522966529309e-05,-0.510119605250605
97.8125,-0.424552361676491,7.12633713812349e-05,-0.445857282155754
97.875,-0.485719636138369,7.45247860630848e-05,-0.370616471697603
97.9375,-0.534924084828509,7.35766693515286e-05,-0.286249853376124
98,-0.570955783332159,6.87836893729675e-05,-0.194834814423405
98.0625,-0.59292937473966,6.07992249714751e-05,-0.0986222974409528
98.125,-0.600305538230423,5.05035544501493e-05,1.86254474977693e-05
98.1875,-0.592903958805798,3.89206685837068e-05,0.0986590871282896
98.25,-0.570907534045951,2.7120930150138e-05,0.194870232306551
98.3125,-0.534857755810056,1.61188334757266e-05,0.286283023941205
98.375,-0.485641400982191,6.77614547647218e-06,0.370646576681048
98.4375,-0.424468854624785,-2.79513758477277e-07,0.445883580960657
98.5,-0.352844570987632,-4.71208056294957e-06,0.510141453061375
98.5625,-0.272530352517947,-6.50441088256295e-06,0.561837951687301
98.625,-0.185502293388296,-5.95275784653134e-06,0.599700137858554
98.6875,-0.0939023898675823,-3.62894116580383e-06,0.622795718824078
98.75,1.4038703827273e-05,-3.14014643330791e-07,0.630556004215336
98.8125,0.0939338528025417,3.09002468855003e-06,0.622789909182563
98.875,0.185543158157632,5.66187992132505e-06,0.599688659693138
98.9375,0.272584509218374,6.56604470409742e-06,0.561821084104607
99,0.352912801487765,5.15093912370631e-06,0.51011960691525
99.0625,0.424548421839453,1.03003158721771e-06,0.445857289537901
99.125,0.485726289191363,-5.86288832130338e-06,0.370616483401312
99.1875,0.534939525328454,-1.5250986335669e-05,0.286249867225327
99.25,0.570976643486364,-2.65279073026336e-05,0.194834827858032
99.3125,0.592951324100453,-3.88075493973421e-05,0.0986223079821545
99.375,0.600324054459653,-5.10060497462885e-05,-1.86197472951122e-05
99.4375,0.592915132358664,-6.19480531550895e-05,-0.0986590873320461
99.5,0.570908763620785,-7.04861786655959e-05,-0.194870238398597
99.5625,0.534848210868777,-7.56207097878794e-05,-0.286283034828017
99.625,0.485622169101007,-7.66062735769811e-05,-0.370646590387218
99.6875,0.424442747511288,-7.3033727000925e-05,-0.445883594984132
99.75,0.352815623725105,-6.48784188254576e-05,-0.510141464824851
99.8125,0.272503105170423,-5.25099704707965e-05,-0.56183795900515
99.875,0.185480982814313,-3.66631071484885e-05,-0.599700139334511
99.9375,0.0938901955610145,-1.83732528227229e-05,-0.622795714108711
100,-1.55605431307945e-05,1.11592478562049e-06,-0.630555994076604
100.0625,-0.0939250462586023,2.04633869551621e-05,-0.62278989537589
100.125,-0.185526206352071,3.8349079854826e-05,-0.599688644653782
100.1875,-0.272563045719786,5.35886335837957e-05,-0.561821070516391
100.25,-0.35289126352373,6.52340116709327e-05,-0.510119597232368
100.3125,-0.424531260413251,7.26512429009647e-05,-0.445857285545003
100.375,-0.485717176681105,7.55685081845346e-05,-0.370616485889825
100.4375,-0.534940701606072,7.40904775217177e-05,-0.286249875844941
100.5,-0.570988516951807,6.8677766482133e-05,-0.19483484117019
100.5625,-0.592972398666108,6.00935459372537e-05,-0.0986223237064039
100.625,-0.600351195512765,4.93224647690337e-05,1.86043361966176e-05
100.6875,-0.592944124398669,3.74698322684561e-05,0.0986590749263019
100.75,-0.570935060353301,2.56511137548771e-05,0.194870231183656
100.8125,-0.534867744278698,1.48829034509695e-05,0.286283034095734
100.875,-0.485632073522673,5.98644056158643e-06,0.370646596305012
100.9375,-0.424441869833577,-4.86617221300771e-07,0.445883606561931
101,-0.352804728922218,-4.29890656406337e-06,0.510141480084731
101.0625,-0.272484740562535,-5.53854951643347e-06,0.561837975325115
101.125,-0.1854590251875,-4.59642971781661e-06,0.599700153906045
101.1875,-0.0938691617062489,-2.11269460613969e-06,0.622795724427024
101.25,3.13172171826275e-05,1.10132195723156e-06,0.630555998377742
101.3125,0.0939321101142392,4.15728687985762e-06,0.622789892943626
101.375,0.185522707148145,6.19037279686997e-06,0.59968863594224
101.4375,0.272548991379861,6.45597590419648e-06,0.56182105706731
101.5,0.352868538852072,4.41319555455143e-06,0.510119581401452
101.5625,0.424503291992095,-2.12872680137115e-07,0.445857270086497
101.625,0.485688323565174,-7.39579868643328e-06,0.370616473472656
101.6875,0.534915480202549,-1.68025567296442e-05,0.286249868585688
101.75,0.570970797960581,-2.78185941863219e-05,0.194834840265475
101.8125,0.592964718911577,-3.96006485930599e-05,0.0986223292293942
101.875,0.600354307046455,-5.11521942880721e-05,-1.85934402223975e-05
101.9375,0.592956861033772,-6.14143955028451e-05,-0.0986590606454926
102,0.570954545321378,-6.93641504548685e-05,-0.194870216080441
102.0625,0.534889902024217,-7.4110326233564e-05,-0.286283020849268
102.125,0.485652354566025,-7.49796047628525e-05,-0.370646587234937
102.1875,0.42445605975685,-7.15843938716002e-05,-0.445883603219135
102.25,0.352809697596968,-6.38668508820315e-05,-0.510141482981784
102.3125,0.272478998395544,-5.21150436242524e-05,-0.561837983853134
102.375,0.185442987507046,-3.69494739602062e-05,-0.599700166452148
102.4375,0.0938450743345546,-1.92804845148356e-05,-0.622795738670881
102.5,-5.97778976496441e-05,-2.39364459255507e-07,-0.630556011713159
102.5625,-0.0939604914088146,1.89118215595748e-05,-0.622789902949299
102.625,-0.185546572205644,3.68846428545929e-05,-0.599688640817394
102.6875,-0.272564708341363,5.24742427769801e-05,-0.5618210559539
102.75,-0.352873926632649,6.4664978085425e-05,-0.510119574535946
102.8125,-0.424498007850727,7.2721576862852e-05,-0.445857258753763
102.875,-0.485673923557533,7.62562695637776e-05,-0.370616459771012
102.9375,-0.534895141805065,7.52640972298338e-05,-0.286249855045487
103,-0.570948754252968,7.01214487378549e-05,-0.194834829389999
103.0625,-0.592945505019873,6.15466193602541e-05,-0.0986223230400783
103.125,-0.600341952950211,5.05254134013929e-05,1.85937716094542e-05
103.1875,-0.592954174383625,3.82089795307881e-05,0.0986590550118629
103.25,-0.5709626118958,2.57945547942918e-05,0.19487020546355
103.3125,-0.534907892721858,1.44020516636437e-05,0.286283007146487
103.375,-0.485677673272834,4.96008396964995e-06,0.37064657292123
103.4375,-0.424484805753173,-1.88601426532085e-06,0.445883590903193
103.5,-0.352837360179429,-5.8341981023116e-06,0.510141474935926
103.5625,-0.272501260050536,-6.94748332773307e-06,0.56183798160115
103.625,-0.18545649264913,-5.63554397490823e-06,0.599700170489385
103.6875,-0.0938480267558247,-2.59860230092824e-06,0.622795748366686
103.75,6.7295222409645e-05,1.25992280387148e-06,0.630556025414411
103.8125,0.0939765310829711,4.94231790081477e-06,0.622789918267382
103.875,0.185567669094846,7.47514678439541e-06,0.599688655048167
103.9375,0.272586496448935,8.02462702862193e-06,0.561821066556741
104,0.35289191634193,5.99626332665446e-06,0.510119579586539
104.0625,0.424508385175443,1.10782448857244e-06,0.445857257290304
104.125,0.485674229139673,-6.57238532686183e-06,0.370616451971788
104.1875,0.534884708820037,-1.66261496709878e-05,0.28624984220512
104.25,0.570928827304212,-2.83245851740898e-05,0.194834813698423
104.3125,0.592919018883659,-4.07012248480899e-05,0.098622307202398
104.375,0.600313010557944,-5.26502200405959e-05,-1.8607008429497e-05
104.4375,0.592927316933777,-6.30381797455874e-05,-0.0986590633407657
104.5,0.570942010954367,-7.08170026744615e-05,-0.194870207423177
104.5625,0.534896608030485,-7.51256364806133e-05,-0.286283002379594
104.625,0.485677108280258,-7.53708327856057e-05,-0.370646562239
104.6875,0.424494457708073,-7.12801785799663e-05,-0.445883576144294
104.75,0.35285490923231,-6.29243279534385e-05,-0.510141458645472
104.8125,0.272522981526229,-5.0708785080044e-05,-0.561837966585363
104.875,0.185477919187759,-3.53383095934442e-05,-0.599700159325078
104.9375,0.0938647425913962,-1.77587969988741e-05,-0.622795742952194
105,-5.88690752151062e-05,9.17628328722421e-07,-0.630556026640375
105.0625,-0.0939785003550523,1.9498332654871e-05,-0.622789925865669
105.125,-0.185580291692955,3.68008051552197e-05,-0.599688667644743
105.1875,-0.272608136423637,5.17424017225886e-05,-0.56182108191857
105.25,-0.352919334614128,6.34233799597758e-05,-0.51011959501832
105.3125,-0.424537315356566,7.11973191912144e-05,-0.445857270110101
105.375,-0.485700136069813,7.47230857942421e-05,-0.370616459981937
105.4375,-0.534903594933818,7.39930269603019e-05,-0.286249844074988
105.5,-0.570937943406049,6.93333277060793e-05,-0.194834809191248
105.5625,-0.59291735289886,6.1374572118837e-05,-0.0986222972080548
105.625,-0.600301467310427,5.09934111807604e-05,1.86206402994493e-05
105.6875,-0.592908556966016,3.92295192482547e-05,0.0986590781369068
105.75,-0.570919977071568,2.71852062743494e-05,0.19487022073127
105.8125,-0.534875823820203,1.59175735358805e-05,0.286283011841681
105.875,-0.485661873435926,6.33447404633488e-06,0.370646566209894
105.9375,-0.424488083342901,-8.94511445469995e-07,0.44588357398068
106,-0.352859129238438,-5.40235514043735e-06,0.510141450813908
106.0625,-0.272537644683608,-7.15706595367762e-06,0.561837954571671
106.125,-0.185501016742524,-6.45877428308072e-06,0.599700145361226
106.1875,-0.093892766308312,-3.90157056377288e-06,0.622795729609937
106.25,3.03021922011516e-05,-3.03874799960113e-07,0.630556016365376
106.3125,0.0939538679170813,3.38572436687346e-06,0.622789920535259
106.375,0.18556336922068,6.19774673541227e-06,0.599688668228952
106.4375,0.272601325846679,7.25515309304867e-06,0.561821088305221
106.5,0.352923237412546,5.87896566059588e-06,0.510119606033476
106.5625,0.424550626210728,1.67474647948658e-06,0.445857283730762
106.625,0.48571987583375,-5.41002253330163e-06,0.370616473702024
106.6875,0.534925641371657,-1.50649752995332e-05,0.286249855359285
106.75,0.570957765172178,-2.66359314626432e-05,0.194834815936283
106.8125,0.592930816115447,-3.91831603393905e-05,0.0986222981256506
106.875,0.600305571219423,-5.15732926703832e-05,-1.86257850741528e-05
106.9375,0.592901967786709,-6.25950479188745e-05,-0.0986590884768664
107,0.570903265120628,-7.10857791702055e-05,-0.194870234446688
107.0625,0.534851361754109,-7.60543619001522e-05,-0.286283026482609
107.125,0.485633413762985,-7.67864559614422e-05,-0.370646579133067
107.1875,0.424460090403621,-7.29205744393905e-05,-0.445883582823586
107.25,0.352835984525172,-6.44872649239359e-05,-0.510141453921704
107.3125,0.272522866898842,-5.1908364733288e-05,-0.5618379512993
107.375,0.185496635374796,-3.59579649689551e-05,-0.599700136196942
107.4375,0.09389896019975,-1.76907334673432e-05,-0.622795716097516
107.5,-1.52369491698868e-05,1.65385004680668e-06,-0.630556000837623
107.5625,-0.0939332150033029,2.07611793423417e-05,-0.622789905705839
107.625,-0.185541407903205,3.83545622002707e-05,-0.599688656714362
107.6875,-0.272582569497032,5.33016288607482e-05,-0.561821082161549
107.75,-0.352911630213541,6.47053793778615e-05,-0.510119606390217
107.8125,-0.424548841001177,7.19728219927196e-05,-0.445857290586314
107.875,-0.485728838069863,7.48560962262581e-05,-0.370616485918163
107.9375,-0.534944363966606,7.34631113289777e-05,-0.28624987085591
108,-0.570983523663863,6.8237051865583e-05,-0.194834832052014
108.0625,-0.59295963304836,5.99065822370617e-05,-0.0986223120819152
108.125,-0.600332923589126,4.94111188419365e-05,1.86163984441726e-05
108.1875,-0.592923591684597,3.78079237185258e-05,0.0986590852803773
108.25,-0.570915914403741,2.61697110558732e-05,0.194870237987627
108.3125,-0.534853385734347,1.54826292673054e-05,0.286283036139524
108.375,-0.485625051109555,6.55463315447723e-06,0.370646593225768
108.4375,-0.42444342694935,-5.67149220664941e-08,0.445883598908006
108.5,-0.352814582472918,-4.08999903223284e-06,0.510141469218311
108.5625,-0.272501131392439,-5.59505559042772e-06,0.56183796317974
108.625,-0.185479031123771,-4.91645058206682e-06,0.599700142642488
108.6875,-0.0938892175165622,-2.64756265184489e-06,0.622795716048989
108.75,1.47854699653819e-05,4.3965894048941e-07,0.630555994375472
108.8125,0.0939220491898272,3.48200962224803e-06,0.62278989402883
108.875,0.185520912358883,5.62078104094092e-06,0.599688641921632
108.9375,0.272555787212796,6.09675777967574e-06,0.561821066876918
109,0.352882721304245,4.33550029350758e-06,0.510119593296109
109.0625,0.424522342870377,1.48895827836336e-08,0.445857281950172
109.125,0.485708858608792,-6.89154707577604e-06,0.370616483194784
109.1875,0.534933851281099,-1.60999500388933e-05,0.286249874436702
109.25,0.570983742186806,-2.70320300392827e-05,0.194834841204571
109.3125,0.59296993916597,-3.88607658547528e-05,0.0986223250893597
109.375,0.600350880622928,-5.05822845445894e-05,-1.86019229627687e-05
109.4375,0.592945403708012,-6.11076741146426e-05,-0.098659071961685
109.5,0.570937101670135,-6.93663137248774e-05,-0.194870228217016
109.5625,0.5348695815368,-7.44108963847992e-05,-0.286283031646869
109.625,0.485632778319095,-7.5513875657863e-05,-0.370646594772502
109.6875,0.424440716121999,-7.22456850935142e-05,-0.445883606155591
109.75,0.352801321623015,-6.45267091438819e-05,-0.510141480794798
109.8125,0.272479085279696,-5.26474475758958e-05,-0.561837976931948
109.875,0.18545152669791,-3.72543381184131e-05,-0.599700156028402
109.9375,0.0938605515458789,-1.93019671356642e-05,-0.62279572659948
110,-4.0111151837761e-05,2.44075426405278e-08,-0.630556000142057
110.0625,-0.0939401287377878,1.94092511161162e-05,-0.622789893937322
110.125,-0.185529130753246,3.75210231421831e-05,-0.599688635967803
110.1875,-0.27255328527591,5.31297729146467e-05,-0.561821056129204
110.25,-0.352870548193632,6.52168920313661e-05,-0.510119579704449
110.3125,-0.424503268954915,7.30662419433148e-05,-0.445857267995251
110.375,-0.485686882060868,7.63273063764936e-05,-0.370616471440727
110.4375,-0.534913486212348,7.50434694662157e-05,-0.286249867066879
110.5,-0.570969215023782,6.96418520873842e-05,-0.194834839624035
110.5625,-0.59296443628815,6.08850786280021e-05,-0.0986223296662301
110.625,-0.600355981163188,4.97894863493416e-05,1.85919316890021e-05
110.6875,-0.592960798465501,3.75181229700064e-05,0.0986590582850531
110.75,-0.570960648168258,2.52598756486812e-05,0.194870213266778
110.8125,-0.534897685433697,1.41077842686797e-05,0.286283018090898
110.875,-0.485661033290871,4.94973751109519e-06,0.37064658505942
110.9375,-0.424464688328473,-1.61670536436112e-06,0.445883602075567
111,-0.352817339123464,-5.33647041370581e-06,0.510141483154972
111.0625,-0.272484891876377,-6.31103457965506e-06,0.561837985405096
111.125,-0.185446683808911,-4.97362639907781e-06,0.599700169201905
111.1875,-0.0938465165545031,-2.02901642188039e-06,0.622795742217269
111.25,6.02440388057458e-05,1.63494571546602e-06,0.630556015497422
111.3125,0.0939621790172624,5.05406757330678e-06,0.622789906347262
111.375,0.18554857556492,7.30113250800324e-06,0.599688643245577
111.4375,0.272566064352163,7.59363238212135e-06,0.561821056971289
111.5,0.352873786559968,5.38452551430095e-06,0.510119573923374
111.5625,0.42449578876112,4.26591673962523e-07,0.44585725655686
111.625,0.485669412455193,-7.1960835462262e-06,0.370616456298372
111.6875,0.534888533911003,-1.70722995938482e-05,0.286249850822071
111.75,0.57094061860751,-2.85024538166085e-05,0.194834825072859
111.8125,0.592936683530198,-4.05668545663093e-05,0.0986223193106233
111.875,0.6003334108451,-5.22156268661019e-05,-1.85963204795483e-05
111.9375,0.592946828672322,-6.237021094821e-05,-0.0986590559745921
112,0.570957168326196,-7.00257942087436e-05,-0.194870204689439
112.0625,0.534904720210021,-7.43446938489297e-05,-0.286283004764717
112.125,0.485676738109654,-7.47324859675767e-05,-0.370646569318617
112.1875,0.42448567727453,-7.08911429449108e-05,-0.445883586658912
112.25,0.352839286901204,-6.2846111020468e-05,-0.510141470724218
112.3125,0.272503302769148,-5.09467071399767e-05,-0.561837978079075
112.375,0.185457690905157,-3.58411698156485e-05,-0.599700168188815
112.4375,0.0938475691399902,-1.84290971358912e-05,-0.622795747608943
112.5,-6.99271282385363e-05,2.05040101192309e-07,-0.630556026261823
112.5625,-0.0939814706717421,1.88728964317586e-05,-0.622789920519535
112.625,-0.185574640954888,3.63726406617107e-05,-0.599688658282687
112.6875,-0.272594865088928,5.15828180995816e-05,-0.561821070206778
112.75,-0.352900798809405,6.35529283673055e-05,-0.510119583040792
112.8125,-0.424516807612508,7.15832860421701e-05,-0.445857259998036
112.875,-0.485681299503398,7.5286535979444e-05,-0.370616453534338
112.9375,-0.53488977510216,7.46238049369452e-05,-0.286249842438395
113,-0.570931593137006,6.99101103174874e-05,-0.194834812656286
113.0625,-0.592919595972871,6.17863410702838e-05,-0.0986223051575676
113.125,-0.600311898605403,5.11586505384592e-05,1.86096213488848e-05
113.1875,-0.592925314609101,3.91099965211607e-05,0.0986590660093855
113.25,-0.570940073751817,2.67922196918696e-05,0.19487020965285
113.3125,-0.534895678312272,1.53098403984728e-05,0.286283003783304
113.375,-0.485677947767989,5.60817802836662e-06,0.370646562604871
113.4375,-0.424497512248653,-1.62179850081326e-06,0.445883575469722
113.5,-0.352860229906878,-6.01126067168394e-06,0.51014145713162
113.5625,-0.27253021611728,-7.54639164261925e-06,0.561837964593659
113.625,-0.185486375467067,-6.56267407253113e-06,0.599700157304204
113.6875,-0.0938735120843471,-3.70113058736042e-06,0.622795741349122
113.75,5.07489656547848e-05,1.68913075587768e-07,0.630556025812451
113.8125,0.0939718747967483,4.05247907138539e-06,0.62278992600979
113.875,0.185575738022864,6.94625667243122e-06,0.599688668757298
113.9375,0.272605861663991,7.95816513501311e-06,0.561821083793565
114,0.352919139099905,6.416212425214e-06,0.510119597284611
114.0625,0.424538628865574,1.95445348199943e-06,0.445857272301227
