time,ax,ay,az
0,0.110331748162717,-7.71258107801053e-05,2.56872712272938
0.0625,0.735951796555305,-0.000302669238242981,2.17519221267182
0.125,1.25846348795846,-0.000448434433445902,1.60165324476785
0.1875,1.62462595333926,-0.00038110873795425,0.945476281009036
0.25,1.80286006338729,-3.00388048460423e-05,0.303324198826455
0.3125,1.7876700476555,0.000517785459460551,-0.243728681240697
0.375,1.59936132787097,0.0010458777873886,-0.640930694807912
0.4375,1.27913939982814,0.00135821206866268,-0.865350595853208
0.5,0.881036122025428,0.00136129723990533,-0.925534523591967
0.5625,0.462869040747793,0.0010463073290447,-0.855449517156135
0.625,0.0782916891919313,0.000466493532859601,-0.703950721472646
0.6875,-0.228909891132089,-0.000255445136507077,-0.522233962761565
0.75,-0.428256209998717,-0.000926291747668644,-0.352512164206728
0.8125,-0.504491342432749,-0.00134213105362115,-0.220937436611633
0.875,-0.458732944298213,-0.00138686636613127,-0.136414339430174
0.9375,-0.308946010869314,-0.00107057436585462,-0.0948193844814634
1,-0.0889704654877451,-0.000493778023795497,-0.0861222001280625
1.0625,0.155089215652349,0.000195245043995576,-0.100929572161563
1.125,0.371855668557457,0.000824790624384257,-0.133569005707121
1.1875,0.514516644153851,0.00122494583120932,-0.180788935197946
1.25,0.551406162469673,0.00127501330929159,-0.237576207410221
1.3125,0.474169843913226,0.000952047138002467,-0.293275274308271
1.375,0.300480079469338,0.000329980819587105,-0.331222082178094
1.4375,0.0697427296537,-0.000458434807420992,-0.333341617609963
1.5,-0.167401578731215,-0.00124592512415998,-0.288376440692562
1.5625,-0.36267191196389,-0.00184147980862565,-0.199982108441342
1.625,-0.482481191461769,-0.00206073828104696,-0.0901604187038114
1.6875,-0.515067818140032,-0.00178923821975248,0.00500053623871483
1.75,-0.470449065906315,-0.00104145714696092,0.0470322433867896
1.8125,-0.373941642135106,4.40321188540351e-05,0.0103460689628482
1.875,-0.256322585776285,0.00125676540881866,-0.105124188492376
1.9375,-0.144656303134029,0.00234710264099567,-0.269754680277695
2,-0.057022711712882,0.00304500582932722,-0.431377439607532
2.0625,-0.00226379281147066,0.00311999986609753,-0.532001672823172
2.125,0.016565161747843,0.00248608663629768,-0.528180128536117
2.1875,-0.00204194469055351,0.00127246258189658,-0.40717091142563
2.25,-0.0601006509837861,-0.000219779280593328,-0.192365037244817
2.3125,-0.158541247366573,-0.00163676233997302,0.0644241591105508
2.375,-0.292750430383166,-0.00266937308434513,0.300970038539175
2.4375,-0.447934795627767,-0.00310963014234899,0.465960883399096
2.5,-0.597544812389436,-0.0028931279132391,0.535409356543629
2.5625,-0.706870583885486,-0.00212792598540027,0.518063682845043
2.625,-0.741585737093678,-0.0010702961211767,0.448367537561693
2.6875,-0.67854709909498,-1.98001802774977e-05,0.370595342466043
2.75,-0.514732019665432,0.000802912567886143,0.32114108155363
2.8125,-0.270537753563283,0.00130629922498431,0.316183901933364
2.875,0.0142983150512868,0.00150702764030529,0.349118125217687
2.9375,0.29102853837587,0.00148452038627114,0.397605688579451
3,0.514887355250247,0.00133637753511783,0.435974961342543
3.0625,0.656182403727367,0.00114037114768451,0.446777646260899
3.125,0.705833036337321,0.000927838987144628,0.426363279919684
3.1875,0.674067104091757,0.000684681632507721,0.382683583396076
3.25,0.583726440565152,0.000382994380166565,0.327496070571673
3.3125,0.461541663637397,1.45946471762187e-05,0.26777944525077
3.375,0.331030647639452,-0.000396486855459464,0.20127702764159
3.4375,0.209334505971174,-0.000797317838942415,0.118681550282802
3.5,0.108065500284953,-0.00111511047646179,0.011314463857011
3.5625,0.036223467293713,-0.00127549911011882,-0.119918824548478
3.625,0.00240651515363851,-0.00123378392498941,-0.259454411877424
3.6875,0.0142528877521647,-0.00099924808885513,-0.379337348394414
3.75,0.0748924588437919,-0.000628340290884724,-0.448749020890142
3.8125,0.178192196163491,-0.000195755933861235,-0.447016018306512
3.875,0.305704605936753,0.000229095590375034,-0.374268632186147
3.9375,0.427856522565139,0.000588690094767175,-0.254547919267341
4,0.510162872806795,0.000838026091964782,-0.129262768449177
4.0625,0.522910547021326,0.000951832055508772,-0.0430982468261087
4.125,0.450929752945075,0.00092938217007259,-0.0278727727684128
4.1875,0.299638133232976,0.00078408552631416,-0.0908857886564754
4.25,0.0947600446281991,0.000529787930084128,-0.212504115639061
4.3125,-0.124505974808202,0.000182830015807761,-0.353896768398491
4.375,-0.316589952864495,-0.000221723791135337,-0.471642122207018
4.4375,-0.449064119980138,-0.000618565352844876,-0.533220114340952
4.5,-0.506700720023409,-0.000921206769276014,-0.527292574796126
4.5625,-0.493706962340738,-0.00104921849755,-0.465115585110664
4.625,-0.430066948270497,-0.000956742844719465,-0.373254869077422
4.6875,-0.344006521830163,-0.000649205615662598,-0.281277157827905
4.75,-0.263634415537936,-0.000185839823113395,-0.209796522349154
4.8125,-0.210497999663087,0.000331895188260686,-0.163575291896772
4.875,-0.196449963664545,0.000786378161372002,-0.131811904009884
4.9375,-0.223603835275272,0.00107907417270515,-0.0945766663599241
5,-0.2860457682546,0.00116072668624339,-0.032011419481426
5.0625,-0.371806246728214,0.00104055973836965,0.0676928389779065
5.125,-0.464287146556826,0.000769793126164696,0.204353165992334
5.1875,-0.54335764006978,0.000411384063773996,0.366530206832542
5.25,-0.587017633785769,1.62151772765987e-05,0.535558337315222
5.3125,-0.57445092158689,-0.00038091071913395,0.690515513631036
5.375,-0.490479015106181,-0.000749001911191099,0.812131478468992
5.4375,-0.330341949561686,-0.00104851840785454,0.884873729069128
5.5,-0.103016642903646,-0.00123087856390682,0.897738633414396
5.5625,0.168590201630899,-0.00124731844529758,0.844856741581729
5.625,0.451228931848798,-0.0010612654716563,0.726637636216581
5.6875,0.707868149745466,-0.00066515541177112,0.551180413580407
5.75,0.905208108837575,-0.00010106572904643,0.334789514572541
5.8125,1.01975437707522,0.000526787218997493,0.100328428181443
5.875,1.04073659324154,0.00106776094368653,-0.126985657104838
5.9375,0.969560941590977,0.00137614203032402,-0.325308023859959
6,0.816927734083628,0.00137074380690117,-0.481196066412132
6.0625,0.599514440054761,0.00106224251826205,-0.591578846276782
6.125,0.337848468830273,0.000539751591053706,-0.661464052351817
6.1875,0.0558440092559393,-6.28080915307123e-05,-0.698207305279283
6.25,-0.218908119536904,-0.000602853111095014,-0.705073512668773
6.3125,-0.45584271932223,-0.000963460735278789,-0.677548233253053
6.375,-0.624616821352336,-0.00108342662091838,-0.604854381080506
6.4375,-0.701011267655258,-0.000970840839391499,-0.476692289830683
6.5,-0.674010795352919,-0.000688075486317501,-0.292431873363786
6.5625,-0.551258175964219,-0.00031679894143136,-0.0682341238339223
6.625,-0.360019188245017,7.27312383543569e-05,0.162118667651889
6.6875,-0.142169267551006,0.000432354109678621,0.35445747731827
6.75,0.0559669299478466,0.000728823825746548,0.467672412376532
6.8125,0.195826491709702,0.000931125275512739,0.478346984086254
6.875,0.256628612132016,0.00100399884325293,0.390410145165361
6.9375,0.23955982425755,0.000912559503127222,0.235234813868451
7,0.164668389472152,0.0006369087585484,0.0614334993169266
7.0625,0.0619011924968488,0.000192027414299927,-0.0819648081347889
7.125,-0.0399493972978993,-0.000356189649685931,-0.162230210741916
7.1875,-0.121893141969016,-0.000891041988647541,-0.172637262713112
7.25,-0.177719600134481,-0.00126952711614956,-0.131171142221675
7.3125,-0.21070182437254,-0.00136756864889905,-0.0690548597464489
7.375,-0.226318418437645,-0.00112863985759684,-0.0144968330979768
7.4375,-0.225095190855026,-0.00059305708623501,0.0207044901236567
7.5,-0.199542332148899,0.00010618550931026,0.0452858367997808
7.5625,-0.137133152636946,0.000779932451637045,0.0812142337955589
7.625,-0.028245668373267,0.00123999405539861,0.148230437039465
7.6875,0.124642624552912,0.00135967023778385,0.247677004683685
7.75,0.301213367558057,0.00111690707423728,0.353943483393184
7.8125,0.464565916920926,0.000601685877956863,0.418918330928673
7.875,0.570149764051248,-1.7708114396228e-05,0.389194406647331
7.9375,0.57968508834443,-0.000556078432543052,0.229833852814891
8,0.475007239607353,-0.000874584384774028,-0.0551082030787414
8.0625,0.266433978702323,-0.000921502698315825,-0.414668128054998
8.125,-0.00785619481794228,-0.000737719303643618,-0.760553643423192
8.1875,-0.291598691439986,-0.000428601679675013,-0.992311748517479
8.25,-0.526108335801258,-0.000116138870685303,-1.02982143330301
8.3125,-0.666456663391753,0.00010821912838409,-0.841545969508696
8.375,-0.692779394988365,0.000211458557509213,-0.458110896977129
8.4375,-0.613348050493311,0.000218789656160104,0.0340835426672116
8.5,-0.459159666019513,0.000189387137311368,0.517375163654813
8.5625,-0.272724106686169,0.000181982101151176,0.877277708321706
8.625,-0.0953479453504591,0.00022658359325468,1.0354189429288
8.6875,0.0429450200442048,0.00031341486851475,0.970507912929447
8.75,0.12834805753276,0.000401161093998455,0.721385425595871
8.8125,0.16278610189457,0.000438417339276992,0.372409480081329
8.875,0.159580940753431,0.000387552923205963,0.0269582676586699
8.9375,0.137630216424451,0.000240200739057077,-0.222135361137357
9,0.116122102685713,1.85586684872777e-05,-0.31655965295396
9.0625,0.110780699862042,-0.000235299063648031,-0.24503732113153
9.125,0.131608086585879,-0.000473986933699427,-0.042536064575521
9.1875,0.181596945318793,-0.000655492754508268,0.221912111984805
9.25,0.256065012201079,-0.000747396054329946,0.464453240277038
9.3125,0.342811443212888,-0.000727062871092795,0.607597684758592
9.375,0.423700822396869,-0.000582069513808189,0.598723168604397
9.4375,0.478134774728964,-0.00031387286112317,0.422418079586706
9.5,0.488126488010298,5.5045555279256e-05,0.104515048888669
9.5625,0.443709456578802,0.000473626520154322,-0.292982528365373
9.625,0.346767329330736,0.000860486703992735,-0.685395078844391
9.6875,0.211542242034242,0.00111519412255445,-0.984899335334748
9.75,0.0611509239122284,0.00114522841722655,-1.12200829287826
9.8125,-0.0789823585983306,0.000901202354461059,-1.06374552542775
9.875,-0.188491182131998,0.000404537515483128,-0.823333861546771
9.9375,-0.257461726668616,-0.000246672916914813,-0.457959573753537
10,-0.287804900890236,-0.000897829613785188,-0.0543954812790013
10.0625,-0.290219125404603,-0.00137855672474093,0.293936416202488
10.125,-0.278244954361083,-0.00155302741258512,0.511869173111378
10.1875,-0.262153686878514,-0.00136474763033123,0.561802112366245
10.25,-0.245408952634601,-0.000857802883565863,0.451514837122145
10.3125,-0.225167853668954,-0.000162134792359315,0.228405234216374
10.375,-0.196325490644833,0.000551454612288394,-0.0373102948895293
10.4375,-0.156875857637687,0.00112395653231933,-0.27425683456108
10.5,-0.111694120441169,0.00144737086701123,-0.428997126841037
10.5625,-0.0725782422928852,0.00148275251583771,-0.476725230786711
10.625,-0.0541943509764979,0.00125805086280939,-0.421395070674326
10.6875,-0.0676018984442672,0.000848975740959906,-0.287287043919616
10.75,-0.114320309795391,0.000349297261735671,-0.10691977658638
10.8125,-0.183807720717437,-0.00015717679492356,0.0892690957210392
10.875,-0.255771034070328,-0.000609897484499802,0.27793253727619
10.9375,-0.306578518668937,-0.000967382909757713,0.442187727343668
11,-0.31720180049878,-0.00119592406739501,0.567951598566573
11.0625,-0.279435493292997,-0.001264566346688,0.641076801406205
11.125,-0.197942146572469,-0.00115125357440045,0.648173248652587
11.1875,-0.087560334710545,-0.000854975790493224,0.581449297621994
11.25,0.0326062331030611,-0.00040613769298775,0.445145495867819
11.3125,0.145511235583438,0.000129593301187497,0.259644158891528
11.375,0.240181165205467,0.000656999914600659,0.0599544931299664
11.4375,0.312083581770604,0.00106920045836135,-0.112238741580916
11.5,0.360459243576434,0.00127619725857593,-0.220613197438444
11.5625,0.384759960566105,0.00123458323459393,-0.245726424998742
11.625,0.38266816655256,0.000963961872941437,-0.191230179892043
11.6875,0.351141182953432,0.000540095921443625,-0.0820855429550962
11.75,0.290052135850444,6.65642411578616e-05,0.044498170731911
11.8125,0.206266896746067,-0.000361674328425495,0.151535108892841
11.875,0.115344705193847,-0.000685189365311192,0.212924555063645
11.9375,0.0389099593874855,-0.000886216069090361,0.218182833976619
12,-0.0022064707726564,-0.000975260247588529,0.170159854161009
12.0625,0.0033356290046455,-0.000968885196956457,0.0781380710078497
12.125,0.0506398980372723,-0.000871174540635826,-0.049092488448582
12.1875,0.117288589240826,-0.000668013655002376,-0.205817629039498
12.25,0.169046169370168,-0.000338503828842457,-0.385879741317847
12.3125,0.171175793215431,0.000119074782719264,-0.575022482174447
12.375,0.101431493652856,0.000659231712517778,-0.744028314060138
12.4375,-0.040257316576183,0.00117876194567164,-0.848155226698762
12.5,-0.2293801400361,0.00153785642227887,-0.836033570738085
12.5625,-0.42297388146616,0.00160774052194448,-0.666786777756698
12.625,-0.572237142816849,0.00132204755410783,-0.329636996881068
12.6875,-0.63707991801988,0.000708278046334529,0.142191404165954
12.75,-0.59740798356424,-0.000111985360997218,0.670479159972195
12.8125,-0.457389528411466,-0.00095141512826,1.14683189578387
12.875,-0.241839729910243,-0.00160349205194467,1.46018000097643
12.9375,0.0130739565414889,-0.00189874057510174,1.52852427032898
13,0.270653180718293,-0.00175856196937867,1.32418907564091
13.0625,0.501791805865097,-0.00122100215042926,0.883621122253024
13.125,0.687888635449601,-0.000423232367675269,0.298037801412006
13.1875,0.818664455144863,0.000442217353612141,-0.312046705629404
13.25,0.887310032666358,0.00117426758256362,-0.829828843783406
13.3125,0.886369806021618,0.00160471961533264,-1.171888872776
13.375,0.807050140382997,0.00163672134213991,-1.30541893007972
13.4375,0.642661243061781,0.00127849096611774,-1.24881749071603
13.5,0.3946441920643,0.000643260088603638,-1.05748454146668
13.5625,0.0781635359987807,-9.98589784862155e-05,-0.801422476101576
13.625,-0.275784941434646,-0.000783778833414691,-0.543100294923237
13.6875,-0.623426681473013,-0.00127505277825514,-0.322612508778316
13.75,-0.915985606520814,-0.00148551558583867,-0.15342630258276
13.8125,-1.10986648720875,-0.00138572488023116,-0.027717955591668
13.875,-1.17606203969958,-0.00102051658487048,0.0728187439519947
13.9375,-1.10604834628632,-0.000494037231046763,0.165766722689782
14,-0.912860002852052,7.83581453781818e-05,0.260316057697613
14.0625,-0.62772859535636,0.000601425705859502,0.354742993195761
14.125,-0.293880540294821,0.00099968864173242,0.438375107797725
14.1875,0.0405930413951634,0.00121533245555028,0.496080030898393
14.25,0.329384776981675,0.00122095784428068,0.513246974456538
14.3125,0.533579746088736,0.0010358022719695,0.479992942961099
14.375,0.626293068401375,0.000723916625622362,0.394200939985367
14.4375,0.596455707082011,0.000371043213088052,0.263408182854423
14.5,0.451398823399255,5.72647383154984e-05,0.105387660657235
14.5625,0.217313452644583,-0.00016575481979901,-0.053141582923181
14.625,-0.0634936452910008,-0.000291797298874777,-0.18032969521088
14.6875,-0.339052025230867,-0.000360853199380223,-0.245601814100096
14.75,-0.557189645075973,-0.000435063830888909,-0.227557051628711
14.8125,-0.675984503547285,-0.000558175235214252,-0.121093740850486
14.875,-0.672408884331708,-0.000723970565943872,0.0589508275748802
14.9375,-0.546620400705603,-0.000877212019453027,0.279607171549593
15,-0.320655756915418,-0.000940533476798195,0.497153271421753
15.0625,-0.032148159755485,-0.00084472498101974,0.667994868375688
15.125,0.274671921686643,-0.00055515896517029,0.759428323659796
15.1875,0.557739062047166,-9.43764135540093e-05,0.756583481132889
15.25,0.783268291609966,0.00044815814068044,0.663378463059721
15.3125,0.928304260412439,0.000934546327563951,0.497838744666068
15.375,0.980477040022088,0.00123043372064299,0.284475680540169
15.4375,0.936791897158821,0.00126345994875616,0.0474446766602525
15.5,0.803183394908066,0.00104558225521997,-0.192625002232767
15.5625,0.595398270950762,0.000651221913564536,-0.417537530294135
15.625,0.340193827806202,0.00017929303353032,-0.608197126337535
15.6875,0.0747642506155443,-0.000276304142226076,-0.742588913231035
15.75,-0.157555148719442,-0.000643861664879117,-0.79815744187135
15.8125,-0.315790163116683,-0.000883418494670343,-0.759251996113543
15.875,-0.372313175455292,-0.000986813542739635,-0.627050226115748
15.9375,-0.322690665354704,-0.000963662635617416,-0.426938743700044
16,-0.190214460286193,-0.00082125795319119,-0.208161644876683
16.0625,-0.0222213716138809,-0.000556509028453444,-0.0331076566471849
16.125,0.121895973867147,-0.000169090115776627,0.0419554065825636
16.1875,0.187836919032964,0.000313447939476407,-0.0115447856123496
16.25,0.143222282161566,0.000818507980218079,-0.179165041424877
16.3125,-0.0117078985051815,0.00123431401020654,-0.401784339899624
16.375,-0.24341649631326,0.00143873027496176,-0.590447552473324
16.4375,-0.494794925969235,0.00133929701383156,-0.654234543973412
16.5,-0.701964070137018,0.000910774575726464,-0.532114562214334
16.5625,-0.81238561593899,0.000217658764369635,-0.217357649532632
16.625,-0.798314561637486,-0.000588995210244557,0.234939634647088
16.6875,-0.661674053974101,-0.00130532639359574,0.720870296071792
16.75,-0.429827296600235,-0.00173425953609531,1.11751337850363
16.8125,-0.145022112294684,-0.00175150750541021,1.31959578888934
16.875,0.147836590011988,-0.0013467398817813,1.27063558634928
16.9375,0.410624746399189,-0.000621824553317596,0.97833859299248
17,0.616174868175545,0.000243097636526497,0.509880217003836
17.0625,0.747462874745329,0.0010369044358045,-0.0301025603032757
17.125,0.79428497694218,0.00156944697293171,-0.530268822458221
17.1875,0.750611213119698,0.00172222036519353,-0.901386785216025
17.25,0.61481116082119,0.00148360056017644,-1.09445425140812
17.3125,0.392867038728886,0.00094652452655764,-1.10428965050253
17.375,0.102616468353973,0.000263168040175311,-0.960408524670983
17.4375,-0.223951164020028,-0.000412731134140289,-0.711088275646937
17.5,-0.542779781533922,-0.000962135230801958,-0.407638198551634
17.5625,-0.804807346775626,-0.00130992995850657,-0.0940299332487709
17.625,-0.966333894083644,-0.00142239159629553,0.196531398122279
17.6875,-0.999408474958754,-0.00130660689918651,0.439962786571192
17.75,-0.898714493636065,-0.00100509527859731,0.618241603873615
17.8125,-0.682676787217709,-0.000575287449338507,0.718152399638599
17.875,-0.388647261554873,-7.12363539359306e-05,0.732987679774499
17.9375,-0.0640877669905819,0.000453086909375458,0.665925630235719
18,0.243214524147041,0.000930422452542669,0.532383519726997
18.0625,0.493078494589112,0.0012793176938622,0.358924676244346
18.125,0.657479829120539,0.00142418403416579,0.178042588011412
18.1875,0.721838482982324,0.00132496224523075,0.0203601087713659
18.25,0.68433669702522,0.000997208946992991,-0.0927415207228157
18.3125,0.554765367921557,0.0005113956608295,-0.153095076814872
18.375,0.353670246573682,-2.85124548607093e-05,-0.164894497332889
18.4375,0.111447634082328,-0.000518224096483231,-0.13982724327116
18.5,-0.133752655088403,-0.000881881316584826,-0.0907900539129402
18.5625,-0.340397188397017,-0.00108294562707696,-0.0272312637139777
18.625,-0.470333920369699,-0.00111791905637329,0.045924046438728
18.6875,-0.496689585745393,-0.00100369353216275,0.12582990796573
18.75,-0.410565675432098,-0.000766327226440798,0.207707595688905
18.8125,-0.224072536175537,-0.000432388235960916,0.281994161422899
18.875,0.0317542637254086,-2.68703934884683e-05,0.334659874535455
18.9375,0.313846465126021,0.000416327982305918,0.35088782547524
19,0.576735454196492,0.00083720244413968,0.320373679603888
19.0625,0.78189280491736,0.00114357039025805,0.2414896914701
19.125,0.904019231220066,0.00123209137927848,0.122027384799192
19.1875,0.932893152631741,0.00103342788391841,-0.0240282591882665
19.25,0.871216578754991,0.000552678933696781,-0.182128069243165
19.3125,0.730337028628716,-0.000121764595332605,-0.34225929403455
19.375,0.526148863804325,-0.000838215847993919,-0.500727955144432
19.4375,0.276767095312746,-0.00141729509482927,-0.657486496682634
19.5,0.00216218036207047,-0.00169775936138045,-0.810245192742197
19.5625,-0.275383768462716,-0.00158669512787556,-0.948501717098445
19.625,-0.531682460727874,-0.00109706434142549,-1.05102764685728
19.6875,-0.743063394929355,-0.000347956231922693,-1.08896207433429
19.75,-0.890661635607666,0.000478422427507806,-1.03407093130556
19.8125,-0.965030967064627,0.0011963717543598,-0.869155079960366
19.875,-0.968866400309885,0.00166379680325866,-0.596293638495392
19.9375,-0.916088467163613,0.00180897070447204,-0.239274426921008
20,-0.827016871033261,0.00163815292909515,0.161059107736382
20.0625,-0.721171369948992,0.00122225686909665,0.556809436133105
20.125,-0.610497129465455,0.000664791901062817,0.90441186659924
20.1875,-0.495856080119084,6.56203481348613e-05,1.17304133658446
20.25,-0.368354104149266,-0.000500536755560383,1.34727139598991
20.3125,-0.21502153457336,-0.000983605569903987,1.42402315515908
20.375,-0.0264643096526547,-0.00134439924759791,1.40647660202692
20.4375,0.196755902398198,-0.00154273723847174,1.2987919709664
20.5,0.441658963148867,-0.00153799438605864,1.10464623097006
20.5625,0.685169958733312,-0.00130297455879237,0.830186445508304
20.625,0.899977447438702,-0.000843645419383703,0.489293144380008
20.6875,1.06121614560642,-0.000214839555185072,0.107463939677367
20.75,1.15115520470865,0.00047575052370037,-0.278948658023516
20.8125,1.16034107476226,0.00108142465563237,-0.629117675780656
20.875,1.08563286868867,0.00145265580380126,-0.907670919684056
20.9375,0.927253069157502,0.00149070175630451,-1.0938822602701
21,0.687466250284996,0.00119350052982216,-1.1856850835173
21.0625,0.372487893245598,0.00065986204749111,-1.19623258764502
21.125,-0.0028283063930532,4.67687988565944e-05,-1.14429015171514
21.1875,-0.410046783575756,-0.000490464697529784,-1.04299532598222
21.25,-0.805448490611603,-0.000844423694747942,-0.892775241478295
21.3125,-1.13430437199049,-0.000976699815197276,-0.68264686659662
21.375,-1.3415158746294,-0.000916408913369138,-0.400252842950619
21.4375,-1.38605085906405,-0.000739068607584506,-0.0464952195271273
21.5,-1.25435453263834,-0.000527116211243473,0.352341580897583
21.5625,-0.967497506872006,-0.000327112818542634,0.741948854387016
21.625,-0.578602083990079,-0.000131599401528492,1.05030706466789
21.6875,-0.160470769377558,0.000101868183759938,1.20887892797578
21.75,0.21300095903993,0.000408448019258923,1.17735716422861
21.8125,0.485616585814299,0.000776231179261214,0.96208768229582
21.875,0.631692066944002,0.001131860637646,0.619783670357868
21.9375,0.658893083228402,0.00136024682214304,0.243344479679715
22,0.60076538961449,0.00134845774960036,-0.0664766233149783
22.0625,0.502300851943281,0.00103402356005617,-0.233956072372299
22.125,0.40411627192522,0.000438261267085144,-0.233916493658029
22.1875,0.330809882712073,-0.000329330534695047,-0.100241069615247
22.25,0.286945728130535,-0.00109728805390206,0.0861645727185107
22.3125,0.260891339536914,-0.00167784733994351,0.225975384951286
22.375,0.233775994394651,-0.00191930086151417,0.236563447531968
22.4375,0.189302073938426,-0.00175328535285044,0.0812975608508799
22.5,0.120494330007952,-0.00121765715310864,-0.217020242972717
22.5625,0.0313415097381776,-0.000440347552485381,-0.582791239935644
22.625,-0.0662982613445551,0.000403602163462034,-0.911473054527019
22.6875,-0.158284781152484,0.00113721284372281,-1.10214229716548
22.75,-0.233427086015776,0.00161763566165091,-1.08794604919136
22.8125,-0.28624351197594,0.00176306307613968,-0.855158825353728
22.875,-0.316669750431732,0.00156809771637208,-0.446001958690474
22.9375,-0.3276411912485,0.00109892713731569,0.0541553575108429
23,-0.322257226516618,0.000466019334861087,0.540086732720462
23.0625,-0.30203956199713,-0.000210030014555247,0.913124692087263
23.125,-0.266887476558783,-0.00081953998850215,1.10363692634461
23.1875,-0.216296114213408,-0.00126896651360714,1.08468058523294
23.25,-0.150810565259096,-0.00148514089015961,0.874895936615142
23.3125,-0.0727963958233944,-0.00142937796108845,0.53137309328735
23.375,0.0137489521190494,-0.00111244092529906,0.135058890595856
23.4375,0.103901704170342,-0.000595456531357732,-0.227786766035967
23.5,0.192274927281772,2.28252997624929e-05,-0.48428237827934
23.5625,0.272770169548037,0.000623188616999255,-0.590092201641558
23.625,0.3378614393474,0.00108460630021435,-0.537939892220734
23.6875,0.378317996679921,0.0013090307724413,-0.357455102501822
23.75,0.384395703100598,0.00125326394997435,-0.106136220980974
23.8125,0.348903066766523,0.000949271096470828,0.146517825661234
23.875,0.271406508676778,0.000489413292290058,0.337524843892615
23.9375,0.161764636137263,-1.49742604133752e-05,0.426260902618212
24,0.0408265077480061,-0.000469941261038721,0.402829889830869
24.0625,-0.0631400892227851,-0.000812468797761344,0.286477903519554
24.125,-0.122065676281958,-0.00100771220952791,0.115007733896492
24.1875,-0.11759665001303,-0.00104348848788175,-0.0705545950653432
24.25,-0.0490808943478268,-0.000924800104230556,-0.240010652890597
24.3125,0.063366139666818,-0.000665621114884912,-0.381327038937287
24.375,0.182579456998761,-0.000285032119427498,-0.498697058035088
24.4375,0.264237094333116,0.000183079481104729,-0.602780364010979
24.5,0.269894309685616,0.000673343585221008,-0.698037446307832
24.5625,0.178795118820196,0.0010861376497557,-0.773440986480718
24.625,-0.00553741479083583,0.00131294568188327,-0.801435655768191
24.6875,-0.255990692197126,0.00127771229606835,-0.746372506806802
24.75,-0.529188674327317,0.000967500538377015,-0.57932823331456
24.8125,-0.776492344564268,0.00044043247355053,-0.293147124286319
24.875,-0.954735724226244,-0.000187507741106568,0.0888817664049498
24.9375,-1.03346445059789,-0.000773100153441903,0.514835414997354
25,-0.997404298602417,-0.00118518184857567,0.916277297924544
25.0625,-0.845116892367186,-0.00134044623502238,1.22625918392816
25.125,-0.586230048811218,-0.00122406937435608,1.39645145143367
25.1875,-0.239618709083847,-0.000887375283308939,1.40725565737614
25.25,0.166450076393478,-0.000424327469830274,1.26796551696837
25.3125,0.59313280151014,6.14669258169602e-05,1.00835656158871
25.375,0.991146176389285,0.00048510225220629,0.666516204030734
25.4375,1.30467247243647,0.000793684326515161,0.278734462751672
25.5,1.48003756286677,0.0009600779587247,-0.124517706555702
25.5625,1.47778898127021,0.000970524717108925,-0.51613623142588
25.625,1.28460969690229,0.000827732767732073,-0.866729782292831
25.6875,0.920613923206216,0.000555410517709463,-1.14088031466298
25.75,0.438560760819667,0.000185288474155819,-1.29951562440406
25.8125,-0.0858730118925999,-0.00024938482174841,-1.30930657390665
25.875,-0.570414368105889,-0.000699335735324164,-1.155929794878
25.9375,-0.944290703048177,-0.00108361515382624,-0.855199005206434
26,-1.16259857606777,-0.00129788740252307,-0.455968136428172
26.0625,-1.21284655512901,-0.00125507816201581,-0.0315984177898762
26.125,-1.11247865954745,-0.000928978798549207,0.338500469644659
26.1875,-0.899370511329475,-0.000360147503614546,0.591268871231229
26.25,-0.619455029853766,0.000359447751832919,0.698161706314946
26.3125,-0.315966411371287,0.00109128781423139,0.672090431485069
26.375,-0.02330751001672,0.00166157218786788,0.56031867711439
26.4375,0.233949161414643,0.00190645924595852,0.425919684862685
26.5,0.438727358444644,0.0017396283396177,0.324820577582661
26.5625,0.578682072640076,0.00119455671617217,0.28701592297192
26.625,0.645405299112049,0.000408579275422062,0.308627843411818
26.6875,0.636292626604149,-0.000432005856544188,0.357003087406333
26.75,0.557789886645934,-0.00114766266327393,0.385915472016762
26.8125,0.427544288707761,-0.00160690540102908,0.354318311482058
26.875,0.273181283637973,-0.00174844339950079,0.241354852563399
26.9375,0.126926376231433,-0.00158290247974917,0.0525652929031392
27,0.0173517384902286,-0.00117812938048091,-0.183760805375664
27.0625,-0.0388675118102474,-0.000631170612637148,-0.427200230291425
27.125,-0.0419552504532069,-3.5869052231437e-05,-0.637681152728098
27.1875,-0.00867555136499771,0.00053474050191418,-0.784985207017771
27.25,0.0334198007888706,0.00102242367605323,-0.852680716417245
27.3125,0.0550504163852336,0.00136869058789976,-0.836879190964232
27.375,0.0342731745943358,0.00151323517662001,-0.742405777471032
27.4375,-0.037546566714637,0.00141345277889275,-0.579442565950658
27.5,-0.154505157555431,0.00106945829439081,-0.362445234661666
27.5625,-0.29932548148793,0.000534266442848233,-0.111029750123766
27.625,-0.448958303157688,-9.40652520442687e-05,0.149169360471805
27.6875,-0.58011514212667,-0.000692909789855242,0.387992225516046
27.75,-0.672879170172175,-0.0011444811781481,0.575693104819167
27.8125,-0.711942257705939,-0.0013667060886983,0.690311680197408
27.875,-0.686387753727197,-0.00133404487687907,0.724633653468453
27.9375,-0.589570528596637,-0.00107885779071025,0.689394404189677
28,-0.420252697893204,-0.000674617009553698,0.610580866183728
28.0625,-0.185003253082459,-0.000210606442548518,0.521106427910068
28.125,0.0993686779378359,0.000233077017234948,0.449649588858767
28.1875,0.405187463291827,0.000601532772165748,0.410853251980566
28.25,0.696522441288844,0.000865295824283094,0.400680660944078
28.3125,0.935177497505279,0.00100634652532114,0.398669037521074
28.375,1.08863164270677,0.00100554381640896,0.376039948520555
28.4375,1.13742915865996,0.000849285673552997,0.306366268425705
28.5,1.07948655253859,0.000545721727883785,0.174732910495535
28.5625,0.929848723123614,0.000129209448555232,-0.0176920237123954
28.625,0.71611638549056,-0.000343197989579999,-0.254606055352534
28.6875,0.471315267817769,-0.00079246528975107,-0.509716350198315
28.75,0.226700509518073,-0.00112198686522369,-0.753426248322356
28.8125,0.00661584851088673,-0.00123880361388772,-0.958498558831792
28.875,-0.17367868026334,-0.0010898098219808,-1.10337261876231
28.9375,-0.307681568163316,-0.000690318020154511,-1.17338875652759
29,-0.396161865735898,-0.000125102190668475,-1.1611677257627
29.0625,-0.445800032047412,0.000474601149764134,-1.06729412518016
29.125,-0.468423113528691,0.000965861252876416,-0.901428391651554
29.1875,-0.480250548182958,0.00123437653393712,-0.682758741677927
29.25,-0.499985114201551,0.00123181082768998,-0.438183629722794
29.3125,-0.544907854415711,0.000992494515720791,-0.197292019278184
29.375,-0.625291911236422,0.000615360715179298,0.015118878772131
29.4375,-0.738854288812512,0.000218097734539155,0.186439933139899
29.5,-0.867802658823721,-0.000111564678232936,0.320156889339833
29.5625,-0.980686730674674,-0.000343959808690349,0.433687135174644
29.625,-1.03966188897327,-0.000504879201669826,0.54996946426159
29.6875,-1.01149983261945,-0.000645735683136189,0.685634194255807
29.75,-0.878746275331011,-0.000801203736093695,0.840729659798112
29.8125,-0.646804733602512,-0.000957509545070259,0.995041244722876
29.875,-0.343876385660539,-0.00104997986493382,1.11366313535355
29.9375,-0.0132810399090976,-0.000989324396784156,1.16049091781423
30,0.299301341045318,-0.000703104139632892,1.1144096544222
30.0625,0.558989960088181,-0.000178348893186471,0.981024814373607
30.125,0.750305507632444,0.000509314622109341,0.79395748844174
30.1875,0.878046125951158,0.00119694816031142,0.603791647911332
30.25,0.96042397464776,0.00167928582463951,0.458143225047791
30.3125,1.017645520956,0.00178895136339174,0.380692335936276
30.375,1.0609737257186,0.00146856583880412,0.358317674767308
30.4375,1.0870055021998,0.000791722588760525,0.342855585499417
30.5,1.07955261849679,-6.63961378666979e-05,0.268319759199623
30.5625,1.01814647439724,-0.000881855169399781,0.0779153948066803
30.625,0.889268793996465,-0.00144321909681247,-0.249391623678839
30.6875,0.695215961015849,-0.00161567985316904,-0.683579277873633
30.75,0.456547445128023,-0.00138660313646623,-1.14653653168532
30.8125,0.20687553853236,-0.000863792814158528,-1.53342405271447
30.875,-0.0179188464809597,-0.000226928017960837,-1.74539917277521
30.9375,-0.191568175630981,0.000337973773035314,-1.72210768729647
31,-0.305491108506696,0.000694003434787155,-1.46223072218975
31.0625,-0.369826918931838,0.000787297356927464,-1.02476378561825
31.125,-0.407214825906907,0.000652820169879016,-0.510826165343799
31.1875,-0.442117285173988,0.000387776574842199,-0.0328168931453059
31.25,-0.490216515188685,0.000104285402552281,0.31806366561157
31.3125,-0.552174180072926,-0.000112839774246781,0.495007276545921
31.375,-0.614030003799016,-0.00022483000454423,0.502699936506803
31.4375,-0.653673998487856,-0.000234549725795347,0.38779715759982
31.5,-0.65040665085095,-0.000169387636615184,0.218094830977653
31.5625,-0.593587260253359,-6.1753535766579e-05,0.0589694893963962
31.625,-0.487073138347487,6.40457369330437e-05,-0.0446494295220032
31.6875,-0.34812115157249,0.000193049388388748,-0.0758304035470822
31.75,-0.201706436532437,0.0003117635153829,-0.0424060399153063
31.8125,-0.0728227556813267,0.00040043909895323,0.0333937692992392
31.875,0.0203172453087632,0.000433372485471413,0.126951988912242
31.9375,0.070123743617717,0.000388041001804918,0.220069900644337
32,0.0799545749801019,0.000257173636858122,0.304119606210788
32.0625,0.0617276821652737,5.64510352049932e-05,0.377924389997992
32.125,0.0322719958308136,-0.000176347526015371,0.442748226073547
32.1875,0.00966933760578917,-0.000391455603306191,0.497305046565646
32.25,0.0101286375437613,-0.000543385014760623,0.534905884686124
32.3125,0.0452676843124767,-0.000605850848017403,0.543461497386122
32.375,0.11950701285708,-0.000577294702000056,0.507862539810059
32.4375,0.227692272553458,-0.00047465761842379,0.413743829353303
32.5,0.353737680547922,-0.000320750847816607,0.251756426529606
32.5625,0.471492229846728,-0.000133804751681992,0.0217903910549352
32.625,0.548744157504556,7.48850695098724e-05,-0.263350426777228
32.6875,0.554244524088435,0.000294687721851099,-0.575673775053394
32.75,0.46624327492878,0.000505810153593274,-0.872456445533091
32.8125,0.27996397060523,0.00067398598591412,-1.10081727023224
32.875,0.0113100416974464,0.000755138013333636,-1.20696195638248
32.9375,-0.304882569001122,0.000709435046251746,-1.14896035394125
33,-0.621878093855989,0.00051995985689452,-0.909947490856553
33.0625,-0.891260200062526,0.000207982322809691,-0.507363401295233
33.125,-1.07307748250563,-0.000165629660724009,0.00586798656861381
33.1875,-1.14279655329049,-0.000517363170299284,0.550199107241273
33.25,-1.09334241304711,-0.000767912660469054,1.03695340371968
33.3125,-0.932535856636036,-0.000863487563173071,1.38968116653138
33.375,-0.677979534206022,-0.000784245324991897,1.56270570416479
33.4375,-0.352116009875476,-0.000547041857381087,1.55073057519913
33.5,0.0204858376573547,-0.000204974211514037,1.38634181622434
33.5625,0.413187642588297,0.000164892795399903,1.12654757910172
33.625,0.795996568198402,0.000484838137875684,0.833433501737027
33.6875,1.13520898400361,0.000697494870570953,0.555953490417924
33.75,1.39590530357553,0.000769677398517149,0.319022259508837
33.8125,1.54770263741762,0.000683265853896664,0.122823867445555
33.875,1.57222409824593,0.000437560056879881,-0.0489711248458954
33.9375,1.46935250183476,6.09619559710701e-05,-0.216751921074381
34,1.25926147941485,-0.000392184134067995,-0.39405593459073
34.0625,0.978607174152812,-0.000851325957371466,-0.582479752817227
34.125,0.671561336314999,-0.0012291527142866,-0.773435325246767
34.1875,0.378550992990714,-0.00142201872643861,-0.954379002115083
34.25,0.126630072546801,-0.00133166635984609,-1.11522907196666
34.3125,-0.0751756006457541,-0.000907608020451719,-1.25110890962191
34.375,-0.234209336445889,-0.000181206162623717,-1.35999305638969
34.4375,-0.367406973217406,0.000730810374711341,-1.43698110235831
34.5,-0.492543046980915,0.00164190673390889,-1.46912262571476
34.5625,-0.621139880089936,0.00232246625784382,-1.43478542131368
34.625,-0.755558114626006,0.0025549417647315,-1.30938781519145
34.6875,-0.890622268351289,0.00221785330636764,-1.07593603918668
34.75,-1.01798263280143,0.00135199411314609,-0.735906704292811
34.8125,-1.13030319416507,0.000156855956135522,-0.315114532478603
34.875,-1.22280063874616,-0.0010766982281627,0.139095759452153
34.9375,-1.29138401775966,-0.00205109021552421,0.569352028188931
35,-1.32876267029942,-0.00253836592858423,0.924518699814634
35.0625,-1.32130338667119,-0.00244593579873799,1.17438824701064
35.125,-1.24936276814554,-0.00185550804083014,1.31681706009772
35.1875,-1.09225057574004,-0.000993546865939482,1.37437516586039
35.25,-0.836606097735692,-0.000125990461502468,1.38201999298578
35.3125,-0.484936811462727,0.000549600426037156,1.37114198484163
35.375,-0.0604117656783178,0.000949884078817243,1.3568122835403
35.4375,0.394857860935931,0.00109763842201093,1.33349820325996
35.5,0.828295782697731,0.00108515523845352,1.28060560134616
35.5625,1.18951461135144,0.0010210649499655,1.17474745520962
35.625,1.44270033263795,0.000973147145353999,1.0026760869217
35.6875,1.57423895065483,0.000932341339246575,0.768714046485408
35.75,1.59294253590846,0.000825487094331396,0.493309772220115
35.8125,1.5231871299674,0.000569722374365112,0.203712390863732
35.875,1.39406596525115,0.000128413483825338,-0.078355370783854
35.9375,1.22908980692866,-0.000457921103501464,-0.345595040355405
36,1.04044484135511,-0.00106965325575217,-0.605723351463405
36.0625,0.829625931971658,-0.00153641041619834,-0.872865009512776
36.125,0.59340390369291,-0.00169502773105946,-1.15345340074418
36.1875,0.331827339066557,-0.00145841834682608,-1.4334108356625
36.25,0.0542617330561325,-0.00085851726390655,-1.67342914661397
36.3125,-0.219433586561274,-4.03247804780465e-05,-1.81606208233266
36.375,-0.463166002899531,0.000783176142297473,-1.80334939902457
36.4375,-0.652416554502038,0.00139458367347411,-1.59895356984188
36.5,-0.772186990479358,0.001638473399372,-1.20635693020016
36.5625,-0.821728903067462,0.00147111309916055,-0.675617938054916
36.625,-0.814193147464799,0.000969953270992552,-0.0951704182605222
36.6875,-0.771533575902788,0.000296613066476905,0.429431860966344
36.75,-0.716889973488532,-0.000364776826913915,0.80321653024539
36.8125,-0.667470745146012,-0.000862979840293156,0.967118025797305
36.875,-0.630421145479692,-0.00111192362947148,0.913095831081197
36.9375,-0.602677336201403,-0.00109864429833581,0.684836077866843
37,-0.574134155537609,-0.000870414159211815,0.364562475184764
37.0625,-0.532351183068639,-0.000507695679034126,0.0505668383524863
37.125,-0.466881114785627,-9.56972280360047e-05,-0.167787122481859
37.1875,-0.372009633933721,0.000293907863143397,-0.231012622967766
37.25,-0.247735346408019,0.000608225946561434,-0.121813798796959
37.3125,-0.0995905199686866,0.000810063998528177,0.133055000771155
37.375,0.0619569224917142,0.000875006430473269,0.470661503130357
37.4375,0.222224277551749,0.00079544424216181,0.807038601092545
37.5,0.363487098886238,0.000588932315579296,1.05625845831844
37.5625,0.467234060061181,0.000299732787265793,1.1497993737935
37.625,0.517809417254416,-1.20514346008795e-05,1.05257290039708
37.6875,0.506899249364766,-0.000287236697299537,0.772264126406889
37.75,0.437407031307185,-0.000481721145948688,0.359441875266551
37.8125,0.324878635254196,-0.000575675991155934,-0.102510005818446
37.875,0.195153045954423,-0.000577078975056023,-0.516221989415196
37.9375,0.0782587439819266,-0.000515662455398865,-0.793879798378098
38,0.000207235194922297,-0.000426097510869038,-0.879452948848508
38.0625,-0.0245161486213107,-0.000329261930574336,-0.763228644986512
38.125,0.00307687224133672,-0.000224543944038914,-0.4840347488945
38.1875,0.0676735711403477,-9.7605533017336e-05,-0.118117035188104
38.25,0.145634859358702,6.34497996105735e-05,0.242106159919119
38.3125,0.213407257535202,0.000253497873697372,0.512829882525603
38.375,0.255035446776582,0.000443451957133807,0.639503443006246
38.4375,0.265889448441876,0.000584332341863477,0.607306268101945
38.5,0.251447230707088,0.000623816795398939,0.439259107868428
38.5625,0.222200597017046,0.000530716086524273,0.184215298943623
38.625,0.187447629110302,0.00031547572708184,-0.0997582733397302
38.6875,0.151096653086241,3.38212304808456e-05,-0.360297214905269
38.75,0.111454624153444,-0.000231180431851682,-0.559479260026214
38.8125,0.0648534754009933,-0.000401465747368668,-0.675397422509211
38.875,0.0109107835079549,-0.00043613146625398,-0.698987509932147
38.9375,-0.0437467881728027,-0.000349133578077279,-0.630247482761066
39,-0.0858225603528645,-0.00020403676850402,-0.47725579858571
39.0625,-0.100267446538121,-8.5949020945795e-05,-0.258703898365332
39.125,-0.0778548095394945,-6.0796228188563e-05,-0.00750181820847442
39.1875,-0.0218190238105121,-0.000140249339566777,0.228822911362642
39.25,0.0500579255278929,-0.00027104211027519,0.394561198431923
39.3125,0.109763048036775,-0.000356771102407397,0.439642470069098
39.375,0.12878550138587,-0.000303527037570104,0.337229946721902
39.4375,0.0896330541319462,-6.83494453273484e-05,0.0982939902941595
39.5,-0.0057088642430766,0.000311739857499985,-0.224060772421223
39.5625,-0.13433490706452,0.000723626911644063,-0.544769438306699
39.625,-0.25925498111295,0.00101511979084325,-0.7702928875582
39.6875,-0.342353105596835,0.00105250886601847,-0.828481585323651
39.75,-0.35864669423619,0.000776934728393752,-0.694353357144982
39.8125,-0.306273879396303,0.000235661606542815,-0.401752918858924
39.875,-0.208173094113996,-0.000426906024288377,-0.0354023212168258
39.9375,-0.104627609091362,-0.0010161064443975,0.295094234094058
40,-0.0393997441046408,-0.0013530666256386,0.49089041024553
40.0625,-0.0446107543639453,-0.00133456709555136,0.496901728747875
40.125,-0.129864550778858,-0.000965423838487531,0.320571565976801
40.1875,-0.279297663743238,-0.000353155069781292,0.0298211086680588
40.25,-0.45709571204962,0.00033118722557489,-0.268967615676259
40.3125,-0.618888878442659,0.000909720147866882,-0.465116631530358
40.375,-0.724578347804298,0.00125030688491872,-0.478237208131142
40.4375,-0.748186716931091,0.00129739020296899,-0.281973430866709
40.5,-0.682054081060439,0.001074072535755,0.0899578320878288
40.5625,-0.535212999430741,0.000660188160651952,0.555871656204008
40.625,-0.327927260251087,0.000159236944318787,1.01088494053953
40.6875,-0.0853169970259272,-0.000331337827587303,1.35553071074319
40.75,0.167495390607171,-0.000736973778902139,1.51949289868164
40.8125,0.40773598064039,-0.00100866056536842,1.47471078735197
40.875,0.615409526130047,-0.00111731893192254,1.23638166091024
40.9375,0.773276594565091,-0.00104847966618155,0.854181078636886
41,0.86769307922486,-0.000803538972522331,0.39807706314397
41.0625,0.890657892193341,-0.000407948378382997,-0.0568368768902751
41.125,0.842262881388892,7.99432526355092e-05,-0.443403481443062
41.1875,0.732096688551626,0.000569214056917353,-0.711955014463498
41.25,0.578399196143619,0.000952702628500653,-0.836112462098285
41.3125,0.404768173067124,0.0011368702968436,-0.814924546275108
41.375,0.235432185602291,0.00107308546382524,-0.671281398266638
41.4375,0.0908489816829806,0.000776065256906593,-0.446497910155603
41.5,-0.0147651722249815,0.000321718822859222,-0.191499627489775
41.5625,-0.0733735434538487,-0.000174322579792277,0.0438737064792471
41.625,-0.0812626652673297,-0.000590174371922606,0.220848330589077
41.6875,-0.0370883699497365,-0.000832960995982594,0.318043301217887
41.75,0.0584489021983308,-0.00086413865590495,0.332102655240607
41.8125,0.200548320778492,-0.000705008956155179,0.272599406174668
41.875,0.376649401542432,-0.000421115720044779,0.153527028851436
41.9375,0.563249627101039,-9.51797413225874e-05,-0.0147100407598346
42,0.72563950726305,0.000197749740962028,-0.228932005567717
42.0625,0.822121425087948,0.000404469001228662,-0.490421049123822
42.125,0.812474893306995,0.000497174481182288,-0.796715340124256
42.1875,0.668478336012407,0.000471271395482351,-1.13172596158028
42.25,0.383094977864498,0.000340907847852977,-1.45925661482063
42.3125,-0.0249310100984744,0.000133169911898657,-1.72409287228153
42.375,-0.512846508522474,-0.00011628515268902,-1.86194161845632
42.4375,-1.02160364840042,-0.000362541299667228,-1.81581076268425
42.5,-1.48709111889809,-0.000548924787983286,-1.55350648836299
42.5625,-1.8514914435554,-0.00061349013800627,-1.08007576047791
42.625,-2.07178192570816,-0.000512394905913459,-0.440636744154319
42.6875,-2.12389121208509,-0.000252635209663032,0.28755080370894
42.75,-2.00284013330802,9.24457728785927e-05,1.01115555381901
42.8125,-1.72047948618811,0.00040859038488698,1.63978822891284
42.875,-1.30265795683594,0.000591523625026078,2.10234094399075
42.9375,-0.786851103245964,0.000583516642937644,2.35674347596407
43,-0.220025832265821,0.000385149013775499,2.39211421958127
43.0625,0.344408419943751,5.65747483535375e-05,2.22496469545665
43.125,0.851712387127476,-0.000289753006071048,1.8924578622881
43.1875,1.25315254881581,-0.000516436177186498,1.44536277448753
43.25,1.51423044523806,-0.000514407919805521,0.941826138702902
43.3125,1.62131331405265,-0.000263120349661821,0.441486786680064
43.375,1.58405855788888,0.000147849165450056,-0.00117335131368912
43.4375,1.43219274106192,0.000560922252978483,-0.344612533387972
43.5,1.20724571717204,0.000822236738811478,-0.56786749493074
43.5625,0.951857511986223,0.000835827651177996,-0.675281106885553
43.625,0.700309861652418,0.000588804172824003,-0.695344527547624
43.6875,0.473433667360399,0.000154302463939936,-0.672253340250139
43.75,0.279158626199706,-0.000328237494878755,-0.651677357567335
43.8125,0.117520090603975,-0.000700119594608908,-0.665182035602834
43.875,-0.0129556430391903,-0.000846564492849252,-0.719187355760161
43.9375,-0.111000442147542,-0.00074300295934443,-0.793311119676816
44,-0.172735655899429,-0.00045789028527033,-0.849528211457928
44.0625,-0.196035009246294,-0.000115837650325492,-0.849074247742411
44.125,-0.186568107279753,0.000156443270021303,-0.770392339447192
44.1875,-0.161750291661075,0.00027930847136755,-0.620421328613039
44.25,-0.149444867500836,0.000248154230993769,-0.433853329049573
44.3125,-0.180544669132274,0.000129356369145128,-0.259879342157071
44.375,-0.277520395562465,2.36525949686616e-05,-0.141403360621047
44.4375,-0.443310403348385,1.33818254572632e-05,-0.0953531900613614
44.5,-0.655429708445296,0.000120691845618514,-0.102828372428458
44.5625,-0.868545397729217,0.000297295556080707,-0.114151213151971
44.625,-1.02559788350476,0.000448919110913648,-0.0678265687328723
44.6875,-1.07414260904683,0.000481717446542408,0.0835302771988952
44.75,-0.982385088898495,0.000349074864656739,0.350529846159314
44.8125,-0.749330919213225,7.67008983444879e-05,0.697000641690876
44.875,-0.40560939480068,-0.000245940317403597,1.04730393313479
44.9375,-0.00496878383778471,-0.000502806655857604,1.3089173853156
45,0.390233810226847,-0.000599217618108792,1.40225630126849
45.0625,0.724343704320429,-0.000500277896788593,1.28689342667438
45.125,0.959553724223223,-0.000244996145034458,0.974795822306651
45.1875,1.08002898440526,6.87921409386466e-05,0.526247094379342
45.25,1.08913500946259,0.000322442430553786,0.0306465342858932
45.3125,1.0024330019488,0.000422682581408762,-0.420263626550573
45.375,0.840197843748763,0.000337346736645795,-0.757036877642089
45.4375,0.62255969668474,0.000105187970809024,-0.947001342916867
45.5,0.368461971931982,-0.000183522028019801,-0.995108742524885
45.5625,0.0974704063153037,-0.000424217894666325,-0.933066504101062
45.625,-0.167918970865156,-0.000535394514456595,-0.802672371528125
45.6875,-0.401869219094422,-0.00048276116509786,-0.640466838390796
45.75,-0.577891169448396,-0.000284957208494218,-0.469070053509568
45.8125,-0.674079387824089,-1.38667116311025e-06,-0.296967684580124
45.875,-0.67891909075636,0.000292036218956995,-0.124779088770713
45.9375,-0.595257033551251,0.000527841149890598,0.0462666845106848
46,-0.440733481370415,0.000661853140803615,0.20806891246785
46.0625,-0.244403441847669,0.000675542102293102,0.344304524393607
46.125,-0.0407171175815797,0.000571273929575179,0.434133291429023
46.1875,0.137170556504978,0.000367117659017459,0.458947895011071
46.25,0.262910045581025,9.42641922759474e-05,0.409230034344287
46.3125,0.320272694866731,-0.000204105854091945,0.289000782181328
46.375,0.304283324321714,-0.000475605412139951,0.116631684858888
46.4375,0.220845559365293,-0.000665604713332632,-0.0778544792409795
46.5,0.0855611562587804,-0.00072903238719639,-0.2580103297156
46.5625,-0.0780366728598968,-0.000644810028329469,-0.387536011805477
46.625,-0.24116462947508,-0.00042733072854447,-0.437193998662482
46.6875,-0.373854343339909,-0.000127920096549713,-0.391190931546972
46.75,-0.450383056630506,0.000177853559696658,-0.251982549705999
46.8125,-0.45512870181755,0.000414333981000426,-0.0421314726003942
46.875,-0.387070651455208,0.000531853228141732,0.198190657163609
46.9375,-0.260983887118684,0.000522926786934133,0.418765292681961
47,-0.104166602779578,0.000420945291688458,0.571128712945931
47.0625,0.0508854337085272,0.000281998757980719,0.621872561902691
47.125,0.175727713327391,0.000158325880404215,0.56328027562276
47.1875,0.253960403169415,7.56182492047759e-05,0.417105768088114
47.25,0.284995855303466,2.4482135235951e-05,0.229077307174997
47.3125,0.282140642430352,-3.01639820932202e-05,0.0548962148885885
47.375,0.265776413203504,-0.000126011207639092,-0.0580692102235895
47.4375,0.254440570841449,-0.000277192009307258,-0.0870063601094623
47.5,0.257479327994149,-0.000458003736097997,-0.0415997125250805
47.5625,0.272234532934221,-0.000606246780777754,0.0397403069364331
47.625,0.28670604004097,-0.000647029911500381,0.104387119256935
47.6875,0.286191668523737,-0.000527332848571165,0.105481642957907
47.75,0.260655435094099,-0.000245396079668765,0.0197851171940498
47.8125,0.209327206130055,0.000139323731953165,-0.143496673790084
47.875,0.140424151883124,0.000521451824769255,-0.346244582490943
47.9375,0.0662734890104403,0.00078531785701986,-0.535647558140087
48,-0.00361019832361238,0.000847570676928228,-0.663145827570726
48.0625,-0.0678670657872527,0.000689865356465701,-0.700367453258844
48.125,-0.134097179903317,0.000367220236901646,-0.645878761192298
48.1875,-0.214313037957578,-1.29969655855658e-05,-0.520737495075163
48.25,-0.316860669265279,-0.000333069643332877,-0.355770198246769
48.3125,-0.438528039179391,-0.000509231920861451,-0.176993525866885
48.375,-0.560794419636874,-0.000518891530026315,0.00388883242354308
48.4375,-0.652574236994097,-0.000400509649914453,0.189654410268684
48.5,-0.679046561962003,-0.000228901898977218,0.38874277487496
48.5625,-0.613458401195958,-7.8727222920912e-05,0.602204467721594
48.625,-0.447362029750699,7.67824666373206e-06,0.813341855128225
48.6875,-0.195247278095778,3.47526885100849e-05,0.985878164439693
48.75,0.108250232134769,4.43807436408843e-05,1.07262536428022
48.8125,0.417421118248936,8.71609024282205e-05,1.03173239830824
48.875,0.687282821581867,0.000188537276678383,0.843912834331114
48.9375,0.883731858120723,0.000327602364780052,0.52326297207119
49,0.988725649618094,0.000440864178620085,0.116765706523526
49.0625,0.999553598908208,0.000450800619430759,-0.307766012004007
49.125,0.92383537981157,0.000305362741287665,-0.68078566111964
49.1875,0.773485083103334,8.29395803253851e-06,-0.949845896055852
49.25,0.560827297967902,-0.000374154990342544,-1.09123842371059
49.3125,0.298467102077664,-0.000732256838997505,-1.11079028331641
49.375,0.0022392117363725,-0.000949702658275727,-1.03481303018511
49.4375,-0.305265910087699,-0.000945058136380786,-0.896126589092777
49.5,-0.593582429089015,-0.000702825566951436,-0.721596427522052
49.5625,-0.827543927205372,-0.000282117570636602,-0.526197894636983
49.625,-0.974502932097466,0.000202337210310444,-0.315074284093259
49.6875,-1.01320076946656,0.000622147842161558,-0.0911303224556272
49.75,-0.940779299257838,0.00088200716177573,0.136766929352663
49.8125,-0.774892565431455,0.00094711247516877,0.349850893706521
49.875,-0.549731513404549,0.000840453207331196,0.522225556681575
49.9375,-0.30718465642502,0.000619286253327339,0.629249832502145
50,-0.086244378908062,0.000347830337335481,0.657532190668859
50.0625,0.0856847208421005,7.81601587543689e-05,0.611621057611878
50.125,0.196899885986627,-0.000157303662212338,0.513948479982594
50.1875,0.250262351213748,-0.000343743107871653,0.397682954117561
50.25,0.258214684196239,-0.00047537579790778,0.295374441182291
50.3125,0.236602961522742,-0.0005450675388667,0.228122344389408
50.375,0.199885390060889,-0.000540285858125751,0.199656667155463
50.4375,0.159102157985368,-0.000450760606900896,0.197436276206717
50.5,0.122332062275037,-0.00028267740917903,0.199771842175224
50.5625,0.0961251831462399,-6.71201325972103e-05,0.185528915008505
50.625,0.0861652002331567,0.000145277959390194,0.142231170270476
50.6875,0.0962219112240963,0.000300956896517083,0.0695692483197041
50.75,0.125803054666977,0.000362411651155339,-0.0222854711132149
50.8125,0.168034033351153,0.000321717944783224,-0.117793955499887
50.875,0.209546518162006,0.000204146917648225,-0.201604506213981
50.9375,0.233364300489289,5.96656946703845e-05,-0.261975925839329
51,0.224310122604052,-5.64157221400843e-05,-0.291161939852751
51.0625,0.175055665305231,-0.000106497021332199,-0.283785734302848
51.125,0.0903245607579849,-8.60545999710708e-05,-0.235370843234304
51.1875,-0.0127142912549605,-2.28582172789986e-05,-0.14294012865937
51.25,-0.108363044482605,3.89918738230423e-05,-0.00812415717420922
51.3125,-0.169384911614765,6.09209381518767e-05,0.15862892951346
51.375,-0.17461938680452,2.70720157937617e-05,0.335328521974894
51.4375,-0.114627304493529,-4.93492606772403e-05,0.489589816412808
51.5,0.00628312922741341,-0.000131810196942621,0.584481031850117
51.5625,0.17174835759088,-0.000176457179115208,0.587704258220251
51.625,0.357460870135011,-0.000153199004472968,0.481013102240339
51.6875,0.535796237056693,-6.23312515182009e-05,0.266384784698036
51.75,0.679448952863202,6.27423605744456e-05,-0.0333464079891191
51.8125,0.763654225709659,0.000169214146260847,-0.37947551274183
51.875,0.767681122750431,0.000208740747335445,-0.725938145419987
51.9375,0.67676018244776,0.000159832111498823,-1.02814141541371
52,0.485161363875536,3.76812102542731e-05,-1.2493446318637
52.0625,0.199999130071788,-0.000113338272231853,-1.36348793218706
52.125,-0.155837909748026,-0.000239727138721621,-1.35532812389031
52.1875,-0.543720695832153,-0.000299992025486269,-1.21992283235879
52.25,-0.913733926586256,-0.000277677604325732,-0.963271095156186
52.3125,-1.21340358854797,-0.000184675196284728,-0.604423150854684
52.375,-1.39865153622201,-5.74152896776913e-05,-0.177495329373066
52.4375,-1.44364556778198,5.43123939811228e-05,0.269074640969198
52.5,-1.34623624165283,0.000109801141819703,0.67821009131085
52.5625,-1.12711911189842,0.000102259764592641,0.994931635022794
52.625,-0.823175046239386,6.01364119672162e-05,1.17952827254376
52.6875,-0.477619746835179,2.03107369044978e-05,1.21853328350744
52.75,-0.130650179771476,2.05241537810149e-06,1.1287869700276
52.8125,0.186285566025598,3.92036645426426e-06,0.952059740034209
52.875,0.451395076439619,1.87435587199131e-05,0.741421077239457
52.9375,0.649810770092641,4.59280120000431e-05,0.544169540202277
53,0.77010461253803,8.91287847198038e-05,0.387953214671517
53.0625,0.803098075302019,0.000153244585182636,0.275683149438871
53.125,0.74453301534066,0.000249598531400487,0.191211881359872
53.1875,0.600724808412305,0.000388053162523764,0.113002766223936
53.25,0.394114677864053,0.000549305962352827,0.0292767919356446
53.3125,0.164828215077794,0.000667719252789783,-0.0528067691512858
53.375,-0.034518203476013,0.000650905352770993,-0.108887729376011
53.4375,-0.15079273293824,0.000427932285544075,-0.110033531406076
53.5,-0.145948387099709,-5.97745070464865e-06,-0.040909928870081
53.5625,-0.01088246930514,-0.000574520280920073,0.0850865322442659
53.625,0.227953580882933,-0.00113630131385684,0.22182683606583
53.6875,0.512544962326382,-0.00152062884565186,0.301424090109473
53.75,0.767557815382255,-0.00157749901468127,0.257667497885738
53.8125,0.920703394906708,-0.00123504666698762,0.0535940228797623
53.875,0.92274436595403,-0.000544598275891799,-0.297807412622555
53.9375,0.760719302924048,0.000315779973538448,-0.728996585889483
54,0.460387367684818,0.0010958308340633,-1.13292379785043
54.0625,0.0777061596990597,0.00156491273838883,-1.39380540381096
54.125,-0.317164210009731,0.0015926382800825,-1.42350599298442
54.1875,-0.657686519258939,0.00118511203540639,-1.19091443214792
54.25,-0.895039670860183,0.000474171009216566,-0.733962158604389
54.3125,-1.00499416475116,-0.00032632241479118,-0.150052918943055
54.375,-0.987131726284184,-0.000980732207744067,0.431740609888123
54.4375,-0.858675235016601,-0.0013006933577182,0.887202568037118
54.5,-0.64652916228684,-0.0012070466113369,1.13021131333117
54.5625,-0.380765844851479,-0.000747818242903885,1.13253957450483
54.625,-0.0911679180520723,-6.46532710357674e-05,0.925297622203985
54.6875,0.193517618855102,0.000655274164868273,0.583517535007454
54.75,0.445294037096218,0.00122105066973553,0.200572859340191
54.8125,0.637464532484609,0.00147969548582531,-0.138581060530118
54.875,0.747005151278482,0.00135722189085489,-0.377367449393795
54.9375,0.758398444498808,0.000882882752521133,-0.496199176110852
55,0.667497173914528,0.00017542691723938,-0.509430213556056
55.0625,0.483731545870252,-0.000602473445484989,-0.453792556937596
55.125,0.229591275264056,-0.00128497190077061,-0.373173123197136
55.1875,-0.0625880495376777,-0.00172536206380332,-0.304457518023764
55.25,-0.35552991023871,-0.001816246956995,-0.267797400559968
55.3125,-0.612233777212329,-0.00151913920488018,-0.262881517149702
55.375,-0.800452425349097,-0.000891988207681081,-0.271243645077586
55.4375,-0.896106693499361,-8.23636339015196e-05,-0.263543375828437
55.5,-0.885931626007131,0.000723665060903247,-0.209989447169733
55.5625,-0.769738258443902,0.00135647852072663,-0.0914568081769149
55.625,-0.562173414339267,0.00169183276849554,0.0916056330740954
55.6875,-0.293103032250765,0.00166829843696143,0.315379670502804
55.75,-0.00529648617875571,0.00130597440582937,0.536056676365914
55.8125,0.251579561030132,0.000712520051925104,0.700609496507436
55.875,0.43045782391187,5.66743236831283e-05,0.762664926932002
55.9375,0.498020198866459,-0.000488112872773928,0.698850723003236
56,0.444335179997413,-0.000801412208937378,0.519897820065188
56.0625,0.287541380707889,-0.000847600171244607,0.271705320124788
56.125,0.0712582824144659,-0.00067568334586047,0.0245576207086113
56.1875,-0.145343774690698,-0.000394040989229139,-0.147160154486028
56.25,-0.302324958910744,-0.000129070983087987,-0.188610387109181
56.3125,-0.354291679082422,2.12761763692888e-05,-0.0835409350216271
56.375,-0.281622110708171,2.33251175830456e-05,0.138205012390734
56.4375,-0.094364298304693,-8.44025187381337e-05,0.407872254743613
56.5,0.171887347470018,-0.000216365061943738,0.637714803509012
56.5625,0.46615970645298,-0.000283647955071963,0.747170064606396
56.625,0.734597369166154,-0.000233724176538905,0.686639417168907
56.6875,0.931395195763051,-7.07472262872027e-05,0.451271899155521
56.75,1.02558139077454,0.000149043748191758,0.0809278651593834
56.8125,1.00313658877454,0.000343071466080307,-0.352552828525706
56.875,0.865763886896703,0.000438626772954458,-0.765523291582033
56.9375,0.628405165431314,0.000404187672247846,-1.08311619319281
57,0.317099036124374,0.00025995358986377,-1.25425891292181
57.0625,-0.032570323029525,6.22790963522986e-05,-1.25821511396398
57.125,-0.377516201028584,-0.00012655845998529,-1.10330351902513
57.1875,-0.671250004998937,-0.000264556124924837,-0.820862462109147
57.25,-0.870868881213415,-0.000339859208730795,-0.457924931406192
57.3125,-0.946106394940543,-0.000363784616147315,-0.0706469910805131
57.375,-0.887896857718948,-0.000353557261170491,0.281589181262058
57.4375,-0.713080442053723,-0.000313700545133978,0.542891696492618
57.5,-0.462562373134594,-0.000227711523871774,0.669663495558837
57.5625,-0.19233935490009,-6.85480533658668e-05,0.640946064749102
57.625,0.0404845602044886,0.000176440658029627,0.467374662804401
57.6875,0.192423858375924,0.000482078190711932,0.19437201354646
57.75,0.24422921653892,0.000779953572694945,-0.104136893751999
57.8125,0.203886016319895,0.000976302685112565,-0.342275440533439
57.875,0.101256157574067,0.000984535550619822,-0.445632371321946
57.9375,-0.0233009698593307,0.000760191042702316,-0.374528976582233
58,-0.131904140989486,0.000326776333593386,-0.138875572108589
58.0625,-0.199055998064744,-0.000222548868988697,0.201607372020619
58.125,-0.215465076751653,-0.000753779631765307,0.553206413169209
58.1875,-0.185536832419829,-0.00113651820495763,0.815647239064386
58.25,-0.120913816710808,-0.00128232162026526,0.912233213474354
58.3125,-0.0337838333650054,-0.00116654687159767,0.812537699136992
58.375,0.066801902740697,-0.000832117610708456,0.540098873188079
58.4375,0.1743270390893,-0.000372824743993393,0.163026112292812
58.5,0.281105536727691,0.000100901155631948,-0.228431019348264
58.5625,0.374389683092415,0.000498574939023914,-0.548918796902743
58.625,0.435384418667192,0.000770990208461921,-0.740233673827675
58.6875,0.4428049637117,0.000907537575905341,-0.782079406124511
58.75,0.380230523534414,0.000918654683342782,-0.689598509225907
58.8125,0.244349155407241,0.000822897556696304,-0.501053323206983
58.875,0.0503115096892863,0.000641222082635035,-0.262150326106989
58.9375,-0.168727191671054,0.000389696103230195,-0.0135349870986409
59,-0.368545327929719,7.63909260757465e-05,0.214741573157775
59.0625,-0.505288791407607,-0.000287462682687625,0.401953216654609
59.125,-0.547534762520907,-0.000666351209105931,0.532063131160556
59.1875,-0.484826213704808,-0.000987428076711172,0.590258780947986
59.25,-0.329911281908088,-0.00115553811101134,0.563794723838919
59.3125,-0.114355840098301,-0.00109412113295428,0.447268648802023
59.375,0.120401712316897,-0.000781585105005748,0.249456431260391
59.4375,0.333120208674453,-0.000264195702311957,-0.00260397653681432
59.5,0.490672450354048,0.00034977967254579,-0.265728038838706
59.5625,0.571982086336578,0.000911008248178385,-0.489599420018158
59.625,0.568114245432471,0.00126619398834938,-0.630080487315429
59.6875,0.480177122772396,0.00130978194102551,-0.661950641477663
59.75,0.317124174754854,0.00103162265835069,-0.586074043169144
59.8125,0.0948156778879434,0.000523402820094179,-0.428090050603966
59.875,-0.163690303568904,-6.44742779176117e-05,-0.229096359638596
59.9375,-0.42789292348641,-0.000582856194625912,-0.0319530308139324
60,-0.661343753024301,-0.000926580150690806,0.13158785217942
60.0625,-0.825940125472158,-0.00104907268756048,0.248337039039083
60.125,-0.888707265298559,-0.000958409693702817,0.323542684462242
60.1875,-0.829358540366775,-0.000702811026148337,0.374112484225074
60.25,-0.646199087894914,-0.00034766291536049,0.418530894698781
60.3125,-0.358262427810624,4.49745092124567e-05,0.467641200843811
60.375,-0.00279980366073051,0.000421805574171364,0.519552259342956
60.4375,0.371192395191649,0.000731693174574285,0.559916713116925
60.5,0.711522522766122,0.00092001736236833,0.566724253866773
60.5625,0.971196214138397,0.000934099089214389,0.517436204527149
60.625,1.11495432128027,0.000743782924931487,0.396103034744227
60.6875,1.12328817106835,0.000367618287853422,0.19879231992585
60.75,0.994189464066643,-0.000119091354483246,-0.0634140254586935
60.8125,0.74324905739533,-0.000603113741339485,-0.363994027930784
60.875,0.402424662853632,-0.000965503694308167,-0.663191666844996
60.9375,0.0171875757431371,-0.00111431300419871,-0.913078568492402
61,-0.358613183853908,-0.00101114914144058,-1.06558593281184
61.0625,-0.670522487901392,-0.000685490215790471,-1.08286751932518
61.125,-0.87320567397673,-0.000227788849901553,-0.948052840712044
61.1875,-0.940120588738895,0.000243565390174152,-0.673214749111194
61.25,-0.870225956597297,0.000626633066271267,-0.301060840832454
61.3125,-0.688996194946359,0.000865158659355758,0.101927893201337
61.375,-0.442477097369645,0.000951360788494816,0.460514522192128
61.4375,-0.185450689881234,0.000910064096808926,0.710226636185426
61.5,0.0329319384745741,0.000777001308913283,0.815277424952153
61.5625,0.181466295906703,0.000580787016758981,0.778432501780715
61.625,0.253068050321198,0.000333642583594135,0.638640827750194
61.6875,0.262863338524776,3.41150255385072e-05,0.456541773990886
61.75,0.239257126415754,-0.000316859358885517,0.292668388998847
61.8125,0.21166890115817,-0.000693433252898768,0.18631144191891
61.875,0.199760927782355,-0.0010316244722542,0.143109552863088
61.9375,0.208129744862614,-0.00123856954204087,0.136221803966295
62,0.227951813357658,-0.00122416918793355,0.120583470465836
62.0625,0.244054947965254,-0.000941485574313222,0.054410916191016
62.125,0.243657560976714,-0.000416587875691118,-0.0809242850436697
62.1875,0.222552554052375,0.000246285151067096,-0.270921159569409
62.25,0.185986759094647,0.00088720283771179,-0.472048241327416
62.3125,0.144191011045861,0.00133522318808826,-0.628194853273977
62.375,0.105178476222337,0.00146398223131967,-0.692563968022018
62.4375,0.0687986430046909,0.00123887110993316,-0.645842937513369
62.5,0.0254592060524814,0.000732830986184222,-0.503151250326613
62.5625,-0.0393392563049936,9.95086734465237e-05,-0.307122069849349
62.625,-0.136422402995275,-0.00048431871616568,-0.110410322794694
62.6875,-0.264272124469213,-0.000879441263053658,0.0446504404547374
62.75,-0.404639444722984,-0.00102344850665362,0.140511757447819
62.8125,-0.525196928761035,-0.000938050641992523,0.187077097408043
62.875,-0.589011236192683,-0.000706978293400746,0.212006157747118
62.9375,-0.56757835875118,-0.000434477068047581,0.243592698610135
63,-0.452408963048041,-0.000200325901122905,0.294374903953555
63.0625,-0.260469491017685,-3.13264917497051e-05,0.353185613030086
63.125,-0.0310630022344245,9.73498874893672e-05,0.389464701199338
63.1875,0.184986439477947,0.00023422554016938,0.36808637864048
63.25,0.340072056831937,0.000413851843197959,0.268164056445718
63.3125,0.403330460712051,0.000629387933415223,0.0973704832247188
63.375,0.36849345416373,0.000828830690231072,-0.104943594697411
63.4375,0.253923117901385,0.000935431174028928,-0.27792627272511
63.5,0.0956086882677242,0.000881227873533079,-0.359294079022329
63.5625,-0.0637872807042009,0.000638272166683892,-0.307832882535508
63.625,-0.185894838404085,0.000233931082601845,-0.119871559543777
63.6875,-0.244426516991964,-0.000256009683652005,0.166384404299972
63.75,-0.228401636399491,-0.000730797782302326,0.480185933638783
63.8125,-0.141330807698594,-0.00109187939307559,0.737872568238916
63.875,0.00192592600429292,-0.00126505969836507,0.866130684384155
63.9375,0.178829298830538,-0.00121541859621056,0.821566938447133
64,0.362363054528169,-0.000951894435857363,0.60122307294299
64.0625,0.523826817025753,-0.000519484369716745,0.242086372513265
64.125,0.635905960261928,1.34490748446689e-05,-0.188915173901456
64.1875,0.676543202753606,0.000562826906493916,-0.610703682972205
64.25,0.633319634380195,0.00103194613622203,-0.94531374048577
64.3125,0.50711717463832,0.00132100405034839,-1.13305719361257
64.375,0.313411800418083,0.00135171681364405,-1.14332113026054
64.4375,0.0800078374347087,0.00109657749794423,-0.979855031973866
64.5,-0.158739835776848,0.000592266589861311,-0.680054023322367
64.5625,-0.369707226433586,-6.661837162498e-05,-0.308127035098499
64.625,-0.52831180124075,-0.000744848792558817,0.0573846147174232
64.6875,-0.622928007977019,-0.00129066739493509,0.340182387526645
64.75,-0.655092988030941,-0.00156943763455472,0.483858390468627
64.8125,-0.635878898409816,-0.00150514422380809,0.466377699841134
64.875,-0.58030504834772,-0.00110865713900682,0.306999824005173
64.9375,-0.502268230820726,-0.000471706353702262,0.0626786590974638
65,-0.411912133687922,0.000263557115239798,-0.186131401530816
65.0625,-0.315932584686668,0.000939752029275366,-0.356880861914943
65.125,-0.219747095483775,0.00141978751732433,-0.387465748993737
65.1875,-0.129538460430564,0.00161935354109199,-0.253084200258442
65.25,-0.0523817969681666,0.00152449782073062,0.0277240342134662
65.3125,0.00611507849436917,0.00118707160775344,0.399392216255934
65.375,0.0456127159833205,0.000700203338855963,0.785380196123434
65.4375,0.0740779327103869,0.000161125643287905,1.10827046262663
65.5,0.107802177486862,-0.000360175493946734,1.30739052788268
65.5625,0.167317055267968,-0.000824554653890793,1.34911226638428
65.625,0.270025052951779,-0.00119947802132839,1.22829512975362
65.6875,0.422104812889219,-0.00143500787133321,0.962797610104035
65.75,0.61297299651449,-0.00146871397173722,0.585096505628104
65.8125,0.814878616657448,-0.00125324686554039,0.13504338127438
65.875,0.988320086160937,-0.000780574263296118,-0.344094964402561
65.9375,1.09171617454229,-9.96902927685443e-05,-0.806792824266985
66,1.09212057727982,0.000666206724563343,-1.20604770641255
66.0625,0.973458838022461,0.00131976000493271,-1.49647527376942
66.125,0.739887420841413,0.00164286942769529,-1.64087148310723
66.1875,0.413875632064944,0.00150143485028787,-1.61892291373576
66.25,0.0305560572523533,0.00091484319322315,-1.43469609924342
66.3125,-0.369089023351247,3.92409421575943e-05,-1.11909056524612
66.375,-0.743919867337838,-0.000886450304495887,-0.724983823501506
66.4375,-1.05623223323391,-0.00160047963040759,-0.315699693060303
66.5,-1.27382536188746,-0.00188779704754308,0.0496640218897443
66.5625,-1.3720362475059,-0.00166311850333484,0.329030176231068
66.625,-1.33699083361582,-0.00102982891862813,0.503958325343759
66.6875,-1.17004017755683,-0.000220565379873157,0.578421013777792
66.75,-0.891737139650479,0.000542022646924974,0.571415331120228
66.8125,-0.542728255326069,0.0011143391417695,0.507524029026974
66.875,-0.179298359831137,0.00142876461025588,0.409904522864152
66.9375,0.136922187727455,0.00148471458251997,0.298308499868492
67,0.353062680814996,0.00134599170736323,0.191580971396091
67.0625,0.43877677059971,0.0011183728901397,0.11129602963177
67.125,0.394851129061831,0.000887247671555896,0.0822731725648442
67.1875,0.253143820973463,0.000666128511636417,0.127297389266394
67.25,0.067242698992236,0.000415943712255443,0.256788306110084
67.3125,-0.103371273988689,9.13645275198811e-05,0.457762105395893
67.375,-0.210388768954591,-0.000336394131783536,0.688288278342699
67.4375,-0.229201236645587,-0.00086370214946595,0.882532655547057
67.5,-0.162875472230033,-0.00142108566149005,0.967520235025713
67.5625,-0.0368470753017234,-0.00185155993186051,0.887474037063633
67.625,0.11290832034197,-0.00197569267316786,0.627312364554099
67.6875,0.253218754834456,-0.00170265293784462,0.225709399394664
67.75,0.363442256182895,-0.00106302345537886,-0.229073527576502
67.8125,0.438405533196718,-0.000174312364974881,-0.621404705114916
67.875,0.484505169288983,0.000790162856560298,-0.842465424947384
67.9375,0.511809410540994,0.00160587183990637,-0.825270634086639
68,0.526424202103449,0.00202417012353013,-0.568344459248106
68.0625,0.526815063314665,0.00189725504959748,-0.139392542154257
68.125,0.505578088888429,0.00128440701098287,0.342837624061683
68.1875,0.455401875009594,0.000396088205836414,0.742732808999151
68.25,0.375928787165312,-0.000524830502852838,0.946801710799123
68.3125,0.277805355542843,-0.00126345845452803,0.894925345611124
68.375,0.181536849293292,-0.00164075592094075,0.594462611040358
68.4375,0.111169384552291,-0.00154671568552384,0.114029807098355
68.5,0.0851978817260305,-0.00100078640523483,-0.439380660389262
68.5625,0.10839038831139,-0.000143615459702909,-0.951322698690621
68.625,0.167909890861948,0.000824738818095704,-1.32875270685905
68.6875,0.235410117585097,0.00167584063896264,-1.51880254587392
68.75,0.274478249891289,0.00216882152362047,-1.51388345225844
68.8125,0.250887701634714,0.00210760210789145,-1.34437164212896
68.875,0.142339687318371,0.001446965298126,-1.06359373805389
68.9375,-0.0551128534738875,0.000342575065608293,-0.730991103175832
69,-0.325350667343083,-0.000934835299630457,-0.398323570032606
69.0625,-0.634978116606713,-0.0020956025727837,-0.101506351705836
69.125,-0.939296199964591,-0.00285952107569128,0.141665375480488
69.1875,-1.18981036405524,-0.00299090781789252,0.329203884215282
69.25,-1.34194851022932,-0.00239626666200047,0.469856191107089
69.3125,-1.36219678054123,-0.00124269232823379,0.576913111507957
69.375,-1.23415443981548,8.09053623372204e-05,0.662171767745536
69.4375,-0.962883077027261,0.0012064550768837,0.731134587429162
69.5,-0.576569035502826,0.00193379666813795,0.78051217563219
69.5625,-0.124366156554539,0.00219389804720969,0.798940613982422
69.625,0.330269674543929,0.00200439119196562,0.771191224013454
69.6875,0.720315488624111,0.00147207806181422,0.68499950579007
69.75,0.988070959081644,0.000799834699214781,0.538354333736048
69.8125,1.09710567815255,0.000225189948282919,0.344338621232595
69.875,1.03991919774374,-0.000111431904561211,0.130991309013413
69.9375,0.838954894655654,-0.000216684599245793,-0.0647026820496694
70,0.540585504724637,-0.000170141684161203,-0.207208544708344
70.0625,0.203927331770599,-6.58070241778988e-05,-0.273623497651774
70.125,-0.11206489236143,-5.4141588490295e-06,-0.261247609616794
70.1875,-0.359485724882619,-8.47687739274817e-05,-0.188229137815969
70.25,-0.507743732688978,-0.000342626483965365,-0.0866523015957048
70.3125,-0.544622211756027,-0.000707531838369946,0.00936462910310942
70.375,-0.473551631912429,-0.00103248321087359,0.0757139674084588
70.4375,-0.309588522855852,-0.00119887445106977,0.105409366791884
70.5,-0.0763201931228471,-0.00116142902380154,0.107753461554567
70.5625,0.195484822293634,-0.000922646436308897,0.100097252495783
70.625,0.468391949530004,-0.000507840705872526,0.0961757225142969
70.6875,0.699990662299166,2.51166762246579e-05,0.0967375984803683
70.75,0.847578567139664,0.00056548921995996,0.087300155275093
70.8125,0.876178189971251,0.000984530676963503,0.0446350535851007
70.875,0.768137570378183,0.00121217739953058,-0.0505724076407282
70.9375,0.530930599292306,0.0012504540957978,-0.200638485314403
71,0.199518212327956,0.00111986228736343,-0.383785713231777
71.0625,-0.168912168627745,0.000824652575958499,-0.557153053722438
71.125,-0.507315418833812,0.000372881564075753,-0.669679904698293
71.1875,-0.754918292566804,-0.000180280570996004,-0.68014371803693
71.25,-0.872040263983862,-0.000719331527377921,-0.573049170368169
71.3125,-0.848750374106666,-0.00110611065093448,-0.365638789230392
71.375,-0.704658752903149,-0.00123189508365544,-0.102867408116063
71.4375,-0.480386232043909,-0.00104782122400447,0.157766340596375
71.5,-0.224249996616826,-0.000580179329382313,0.365336950704163
71.5625,0.0207960111777414,6.15818471449362e-05,0.490742160361292
71.625,0.225514532158357,0.000698156230919055,0.532080099042907
71.6875,0.375937812303741,0.00112923689787683,0.508594834437046
71.75,0.469068878373578,0.00120820057138624,0.446727386428098
71.8125,0.506055988452976,0.000903881478067623,0.365256508022888
71.875,0.48685805752804,0.000312482425047763,0.266750093914375
71.9375,0.409204105573884,-0.000380774610211223,0.13946000516969
72,0.272174944226116,-0.000964771041666761,-0.0312262878410647
72.0625,0.0822045081006299,-0.00126640074991538,-0.247338852703263
72.125,-0.142092806156454,-0.00120112362845415,-0.486642810060935
72.1875,-0.369475546720702,-0.000797878943373888,-0.70117113188675
72.25,-0.561252285817588,-0.000185105430281553,-0.828142601487379
72.3125,-0.680713927512421,0.000458929283365859,-0.810036761759619
72.375,-0.703407999513565,0.000966074755111097,-0.616428838341864
72.4375,-0.624297146124588,0.00122378358816627,-0.259047573542159
72.5,-0.459030806209579,0.00119633390394652,0.20611657033737
72.5625,-0.238918782906315,0.000921416864730632,0.690980425189888
72.625,-0.00165950895149908,0.000486623623299425,1.09785412371566
72.6875,0.218630038867029,-3.83472213790398e-06,1.34469305472008
72.75,0.39860278610831,-0.000457717399041675,1.38499757125359
72.8125,0.528097874516359,-0.000808015136760713,1.21669823620592
72.875,0.607939836570725,-0.00101159859583327,0.878610359769937
72.9375,0.645071428780253,-0.00104314141758102,0.437237278272029
73,0.647653382262644,-0.000893779743717156,-0.0307580558088185
73.0625,0.622153510883978,-0.000576828896774913,-0.454915300639612
73.125,0.572992777872693,-0.000136373013912857,-0.782467459078945
73.1875,0.503835741511658,0.000348213502905443,-0.983850768591943
73.25,0.418869036867133,0.000769075597543237,-1.05322528552705
73.3125,0.322731002799205,0.00101286859233075,-1.00580947088578
73.375,0.21888492675374,0.000996978552173697,-0.873383003915246
73.4375,0.107486947817795,0.000704864996327293,-0.698321095378097
73.5,-0.0155539568973466,0.000201773500462661,-0.525918654329728
73.5625,-0.157002160231432,-0.000379121794174334,-0.395119796800184
73.625,-0.322143052625748,-0.000875221987068931,-0.328971826101752
73.6875,-0.509498647510714,-0.0011437893361664,-0.327423788715579
73.75,-0.706823536362777,-0.0011064740473688,-0.365526234603986
73.8125,-0.890650178032337,-0.000774543965011169,-0.399045853770939
73.875,-1.03036669522964,-0.000244198575961105,-0.377117261591777
73.9375,-1.09591638037701,0.000338036088715078,-0.258711790098593
74,-1.06656281098747,0.000825243661159224,-0.0276877819090422
74.0625,-0.937539777492983,0.00111363956049399,0.298953712740601
74.125,-0.722116284840592,0.00116421745467949,0.67296852072678
74.1875,-0.448357407452373,0.000999657935858389,1.02678920084757
74.25,-0.151881918229086,0.000683534741513451,1.29172597075055
74.3125,0.132673116001258,0.000293401731601464,1.41646595194016
74.375,0.378551931797025,-0.000101052059808587,1.37991453379934
74.4375,0.570204722898206,-0.000448223463144306,1.19466425574626
74.5,0.702764487375974,-0.00071348513139287,0.900851154708556
74.5625,0.778939769402769,-0.00087271842581159,0.553415326576057
74.625,0.805311063335059,-0.000908087714766036,0.207559686262467
74.6875,0.789694042935812,-0.000810602774627447,-0.0930307903210319
74.75,0.740160488216608,-0.000588296768196996,-0.322506337388749
74.8125,0.665144200776459,-0.000273945331636854,-0.473453757227021
74.875,0.573459333544405,7.48522731776035e-05,-0.553426416550085
74.9375,0.473328932942253,0.000386939986889391,-0.579693212165768
75,0.37046162177329,0.000597737376923605,-0.573930867507873
75.0625,0.266229205534746,0.000670247671380972,-0.557473405580144
75.125,0.157424628293345,0.000607242004285226,-0.546938958931527
75.1875,0.03855963484969,0.000448207356692936,-0.550116315201654
75.25,-0.0936373023297779,0.000251562277544376,-0.562811308218239
75.3125,-0.235297089792604,6.98651229691764e-05,-0.568243813615301
75.375,-0.372599485822924,-7.04099825981999e-05,-0.540692507030219
75.4375,-0.483163329128478,-0.000174652537180139,-0.453916078680089
75.5,-0.542086807276996,-0.000268358063486302,-0.292688359895876
75.5625,-0.530916627151495,-0.000373608181493721,-0.0635505025167558
75.625,-0.446128617288195,-0.000486214052142309,0.200122680726913
75.6875,-0.303368305829358,-0.000566717776077819,0.442522382098115
75.75,-0.135049249861365,-0.000552321644529388,0.599828487153894
75.8125,0.0185117905253738,-0.000386507227119974,0.620993098547297
75.875,0.121498520828813,-5.38199413820194e-05,0.487802318654489
75.9375,0.153929028825586,0.000396540249315774,0.226216471564572
76,0.117507759925358,0.000851783683668825,-0.0966408807056858
76.0625,0.0336737458975763,0.00116603459236824,-0.390431118994595
76.125,-0.0653302844505683,0.00121228875586289,-0.5692327965048
76.1875,-0.148682976359426,0.000935431331680747,-0.579379064323708
76.25,-0.197499798400191,0.000382094184621022,-0.4173147533806
76.3125,-0.209456899691435,-0.000307317597444188,-0.130623943053576
76.375,-0.19596271224603,-0.000941993405421285,0.198411265626392
76.4375,-0.173592819131793,-0.00134300719042602,0.4807156292022
76.5,-0.153990004989405,-0.00140217415474146,0.649411846447558
76.5625,-0.137028137627114,-0.00111653728121439,0.679241207078008
76.625,-0.110484923240764,-0.000585242393419829,0.589708619794312
76.6875,-0.0564617647930471,3.01826426213859e-05,0.431800879916227
76.75,0.0383281578123169,0.000564626789774487,0.264570944930703
76.8125,0.1731226270444,0.000901891124067288,0.131570421317173
76.875,0.328992857551052,0.00100173917829245,0.0465943462997995
76.9375,0.47229089256218,0.000895994458902748,-0.0061825063391838
77,0.564693144920606,0.000660594838329565,-0.0588920938011876
77.0625,0.576068700489716,0.000378124895719987,-0.140193268038579
77.125,0.495204633139837,0.00010686112438005,-0.258155939163632
77.1875,0.334300414548598,-0.00013202875178975,-0.393385775419211
77.25,0.125662549292204,-0.000345774873691061,-0.505261718180283
77.3125,-0.0879301597203406,-0.000546216980220391,-0.548427687283352
77.375,-0.265444893536051,-0.000725248317413877,-0.492385969168529
77.4375,-0.378022583091733,-0.000844851626077862,-0.335920275202391
77.5,-0.414383361636396,-0.000849018782554052,-0.110439652857561
77.5625,-0.380252385490333,-0.000691673407407085,0.128991675682119
77.625,-0.293192463544485,-0.000364880886143139,0.321253480334249
77.6875,-0.175658325022612,8.78062903056075e-05,0.418570141476004
77.75,-0.0491233460932339,0.000577964250761243,0.400652090858543
77.8125,0.0690322852144339,0.000994063066151517,0.279031186706161
77.875,0.165834739594584,0.0012309486701864,0.0910333363412887
77.9375,0.231496826415015,0.00122034683965042,-0.113434416144081
78,0.25832524351571,0.000953761102722342,-0.28704401043955
78.0625,0.240856483538328,0.000487339835128896,-0.397072559105527
78.125,0.177251046533925,-7.57408890536406e-05,-0.431155564816391
78.1875,0.0710388102138556,-0.000616749035930093,-0.396278652021301
78.25,-0.0679884960966667,-0.00103062499776393,-0.312730321344663
78.3125,-0.224492263778508,-0.00124340342014139,-0.20580227406821
78.375,-0.379787036943788,-0.00121966074900751,-0.0978925057634786
78.4375,-0.514641241078976,-0.000965593923181806,-0.00281248613601176
78.5,-0.611597977021273,-0.000528860834531019,0.07685389119498
78.5625,-0.656208205541631,8.34792120453992e-06,0.149147678882032
78.625,-0.637408741672857,0.000544183362239683,0.229053262549554
78.6875,-0.547947402071828,0.000975076459878561,0.332246078962526
78.75,-0.385792931996421,0.00121230601665344,0.467383664724848
78.8125,-0.156755754989897,0.00119843900358963,0.628896952935918
78.875,0.122576885520416,0.000924620895885878,0.79290867624161
78.9375,0.423386270566532,0.000442514456867317,0.918799971456231
79,0.70651131877476,-0.000139359350481321,0.957649787779327
79.0625,0.928547494760744,-0.000679847548982923,0.866411144849389
79.125,1.05126762596247,-0.00104435519469946,0.624037330609452
79.1875,1.05172300058662,-0.00114551139113182,0.244000769162056
79.25,0.929496529563333,-0.000970554939554923,-0.222198807714263
79.3125,0.708113734630883,-0.000585084636139072,-0.693504574966274
79.375,0.429509087925533,-0.000110800431610123,-1.07863431228082
79.4375,0.142992223585613,0.000315635914636305,-1.30090593376841
79.5,-0.107697764655618,0.000587734273880946,-1.32053509894189
79.5625,-0.294865601593325,0.000661234122539896,-1.14659992584579
79.625,-0.411417800383808,0.000561179912692452,-0.834122037234984
79.6875,-0.468378039778478,0.000362646789667817,-0.466898214447456
79.75,-0.486949512360923,0.000154802135676859,-0.131850490149312
79.8125,-0.488678499793443,4.48084335582304e-06,0.106301773955282
79.875,-0.487671146541023,-6.53503597608888e-05,0.221540319946849
79.9375,-0.487537786092069,-7.44146003206523e-05,0.229211650278626
80,-0.483427412655322,-6.42818997142294e-05,0.175112333166828
80.0625,-0.467255801430014,-7.00556485962543e-05,0.116124044891132
80.125,-0.433047498625155,-9.96945134654125e-05,0.100082919089325
80.1875,-0.379688860292794,-0.000131270165106179,0.151929467078321
80.25,-0.310055840839872,-0.000128588983876216,0.269864117414476
80.3125,-0.227554723861499,-6.59840286661199e-05,0.430851996667157
80.375,-0.132538946374177,5.15051145178158e-05,0.601342239000601
80.4375,-0.0211239983607325,0.000183995505449857,0.747897791940269
80.5,0.112410761640399,0.000272084136719652,0.843811146075398
80.5625,0.270491246104264,0.000265068981848854,0.870740143883969
80.625,0.44695518317216,0.000148343922468426,0.817286366974853
80.6875,0.624625208013539,-4.43179394640107e-05,0.677763617007649
80.75,0.777684734063032,-0.000241184012604608,0.453565747688589
80.8125,0.878602118177215,-0.000362465247009715,0.157114300078946
80.875,0.907083636936257,-0.00035684829598413,-0.184217543896675
80.9375,0.857304115167223,-0.000227876039481415,-0.527994703702607
81,0.740123022086777,-3.6904651785089e-05,-0.823146848736287
81.0625,0.579019324267196,0.000121004401740686,-1.02265381634782
81.125,0.401198889450538,0.000159658762165844,-1.09866711306035
81.1875,0.22751482784331,4.42573574146308e-05,-1.05397373284019
81.25,0.0654741781810937,-0.00018681197835463,-0.924062668672818
81.3125,-0.091647473144418,-0.000433123939926886,-0.767214864499996
81.375,-0.259175849585126,-0.000572960900245407,-0.644842188484336
81.4375,-0.451312812717272,-0.000515999130336533,-0.598709962233418
81.5,-0.671524242433956,-0.000244541403428314,-0.633674076594526
81.5625,-0.907204939611764,0.0001751446756143,-0.713085330068221
81.625,-1.13093842959997,0.000616387602964868,-0.76947809139169
81.6875,-1.30785327876792,0.00093990050320457,-0.727334858390256
81.75,-1.40604101068653,0.00104550250385581,-0.52997857233346
81.8125,-1.40584288259233,0.000907239176292743,-0.160951529633998
81.875,-1.30449119636055,0.000578517965989749,0.347709176350974
81.9375,-1.11473314000936,0.000166229157598693,0.922955274052789
82,-0.858662699645371,-0.000213601829373963,1.47084039791089
82.0625,-0.559871362934958,-0.000478338795044815,1.90181498812026
82.125,-0.237408945061582,-0.000601571240396773,2.15252141823529
82.1875,0.0961515664310387,-0.000608938299106046,2.19752543137731
82.25,0.432381212339292,-0.000552500717463615,2.04876926969873
82.3125,0.762259167547788,-0.000478477771902798,1.74516891447104
82.375,1.07190022715122,-0.000404622688800546,1.33782152287059
82.4375,1.34119150770415,-0.000317092033094062,0.876720258040387
82.5,1.54623262757605,-0.000186727508400448,0.402895524992367
82.5625,1.66459464318448,3.9764849865308e-06,-0.0532711166526469
82.625,1.68111486864383,0.000237183318706447,-0.469602154004824
82.6875,1.5918033736008,0.000453812065965299,-0.828804964579419
82.75,1.4044395545975,0.000572897917719986,-1.11688396594254
82.8125,1.1360211964319,0.000528658351254237,-1.3240159834333
82.875,0.808585149650474,0.000304852423008811,-1.44669036201824
82.9375,0.445402362484509,-5.15765338994888e-05,-1.48898766170727
83,0.0689882187348089,-0.000441937299169869,-1.46137135154223
83.0625,-0.298874326457486,-0.000746059441878447,-1.37691734083391
83.125,-0.636134215783112,-0.000861156322371031,-1.24657385632673
83.1875,-0.920096241779139,-0.000737307003291775,-1.07586341335808
83.25,-1.12888662245904,-0.000396329954397563,-0.864925329805502
83.3125,-1.24486438788989,7.59787075668822e-05,-0.612194017392891
83.375,-1.25884643075757,0.000561621899403146,-0.320143586314052
83.4375,-1.17332134260963,0.000949126537272258,-0.000374259855715681
83.5,-1.00305951678909,0.00116126137726673,0.324524447817554
83.5625,-0.772583198926627,0.00116543131922402,0.623496661806909
83.625,-0.511309874878337,0.000970549466930075,0.863149987957541
83.6875,-0.248141998893945,0.000616998891492334,1.01519278261068
83.75,-0.0073640641880231,0.000165176935038205,1.06250057349221
83.8125,0.193103445269982,-0.000313919168767154,1.00200720813474
83.875,0.341312019466332,-0.000745220175482131,0.844203956967246
83.9375,0.430015382934281,-0.00105545388691769,0.610445960936485
84,0.456032483480291,-0.00118226898911831,0.329765029479106
84.0625,0.421071328372696,-0.00108848580796086,0.0362756713646354
84.125,0.333599396352232,-0.000778070389847127,-0.232997914383141
84.1875,0.210249013754183,-0.000305815509496046,-0.441084078829848
84.25,0.0749663390819836,0.000227362555745022,-0.556064606754649
84.3125,-0.0450769874503388,0.000696517212389735,-0.558188320757014
84.375,-0.126195133276072,0.00098744532962454,-0.447313315453514
84.4375,-0.155296330857897,0.00103267510383679,-0.24741076621552
84.5,-0.13440219230766,0.00083459621559379,-0.0047996377496824
84.5625,-0.0802082501840366,0.000465179126540588,0.221426835010247
84.625,-0.0181880803609803,4.07316569859133e-05,0.375182849501081
84.6875,0.0268908209354562,-0.000319251819365712,0.420616760152243
84.75,0.0403942485463127,-0.0005329986769689,0.354402904286723
84.8125,0.0232570038566623,-0.00058073077309473,0.207701567282265
84.875,-0.00904307778099793,-0.0005027342296671,0.0359186377288577
84.9375,-0.0337634805626506,-0.000372880689545932,-0.100798356819875
85,-0.0314655906631126,-0.00026009304959348,-0.159321065651423
85.0625,0.00466905754198359,-0.000195654895593558,-0.129099297287711
85.125,0.0649491544321535,-0.000161537872587452,-0.0350952332865572
85.1875,0.126642227818288,-0.000105156841701101,0.0734313515158044
85.25,0.163543520785384,2.65388961373581e-05,0.143992232156922
85.3125,0.157640553244395,0.000250265557833017,0.143230460223312
85.375,0.10780206574186,0.000525470230789897,0.0712089086432329
85.4375,0.0315540220256091,0.000761051500670654,-0.0385697568611531
85.5,-0.0411065326586126,0.000849011398795562,-0.133700468513849
85.5625,-0.0794993639510755,0.000711648276058563,-0.166060957280657
85.625,-0.0648400266767992,0.000341776057834408,-0.113900577747845
85.6875,0.00161768212044976,-0.000182653841243766,0.00668379574213427
85.75,0.098296827418573,-0.000717798589961005,0.14612725164833
85.8125,0.191038407779157,-0.00110107800236282,0.240305211929807
85.875,0.245737123190221,-0.00120840209460291,0.236532217006882
85.9375,0.240795764340993,-0.000999097443270854,0.116133911761165
86,0.174525534162758,-0.00053094704632404,-0.0956719913888025
86.0625,0.0648239841855374,6.00779340631724e-05,-0.336792752292037
86.125,-0.0583300382430932,0.00060683357474049,-0.529634176723827
86.1875,-0.164200565652852,0.000966461734261588,-0.608633239254837
86.25,-0.231791766347169,0.00106372419607254,-0.543460640442293
86.3125,-0.25557233821155,0.000907142038780453,-0.349303126107861
86.375,-0.244732015065903,0.000574363958217218,-0.0808132055983814
86.4375,-0.217013815402705,0.000176161860410056,0.187427271969241
86.5,-0.190202782901523,-0.000183718527339787,0.386256826089179
86.5625,-0.174901659786059,-0.000437015774060243,0.473810485188002
86.625,-0.171216777032942,-0.000560181501633703,0.446605065728511
86.6875,-0.170028306249402,-0.000566109954968196,0.336993916325123
86.75,-0.157587253196019,-0.000486331623194835,0.199184126888294
86.8125,-0.121101990428528,-0.000353738761880906,0.0896490977969617
86.875,-0.0530898188240519,-0.000193617436981357,0.0488621407004999
86.9375,0.0466845625651802,-2.4819940621895e-05,0.0898241948996517
87,0.171546821417295,0.000133614062607792,0.195844315566083
87.0625,0.309505009917069,0.000258094909970293,0.326850701737814
87.125,0.444993017827678,0.000323633434993582,0.431310995293309
87.1875,0.560273374069636,0.000313771480371944,0.460090213590115
87.25,0.636812767813081,0.000231297283317909,0.379019241408816
87.3125,0.657365788153653,0.000102429767454276,0.177927221117993
87.375,0.609217871865415,-2.9829447714261e-05,-0.125200879778787
87.4375,0.48816801370905,-0.000121855375572544,-0.485668137794321
87.5,0.301882372062085,-0.000148219474312654,-0.839319511891051
87.5625,0.0708396417722172,-0.000113797893728745,-1.11501280114869
87.625,-0.174400696638385,-5.21192908371437e-05,-1.2504461718318
87.6875,-0.399537360639605,-9.33289622894547e-06,-1.20801225659226
87.75,-0.574796429165057,-2.05259726193498e-05,-0.986355661856475
87.8125,-0.682352089239758,-8.96819725886337e-05,-0.623555870937172
87.875,-0.72012951149854,-0.000183929195525753,-0.189727135346514
87.9375,-0.700455932588066,-0.000246529345704708,0.230004928145065
88,-0.644021706394897,-0.00022363090422975,0.557765013471976
88.0625,-0.5715122690155,-9.21202633401351e-05,0.743740061261668
88.125,-0.496219297439106,0.000125161238008288,0.778782738852866
88.1875,-0.420487019186234,0.000364228661841716,0.694495219388814
88.25,-0.337180339824728,0.000542738769592119,0.550688186309181
88.3125,-0.23521547465999,0.000591437313055212,0.414517428599909
88.375,-0.106529626189278,0.00048188396222972,0.338484827612148
88.4375,0.0485856696200963,0.000238976390988113,0.344701213038048
88.5,0.219940498749086,-6.77759105234833e-05,0.420279098734266
88.5625,0.390024265781159,-0.0003508757135722,0.524510950258643
88.625,0.539198942627859,-0.00053723689438867,0.604315045619217
88.6875,0.651002900962432,-0.000591848360460882,0.611930135075573
88.75,0.715326352692112,-0.000523481414992193,0.518857283067644
88.8125,0.728545685888088,-0.000372368453516824,0.322309815443164
88.875,0.69136992451223,-0.000187820984598888,0.0437368042206169
88.9375,0.606288184832724,-7.41273215356e-06,-0.27819798066436
89,0.476531981349528,0.000152528626412861,-0.596602409743788
89.0625,0.307383409723148,0.000291835243981974,-0.864384454542213
89.125,0.109056688691318,0.000411539026629569,-1.04020806750583
89.1875,-0.100867500859387,0.000499265111795452,-1.09301271735765
89.25,-0.2976500167121,0.000525171801863846,-1.00637383977437
89.3125,-0.453357853316645,0.000452855974111065,-0.783182553838318
89.375,-0.543833773782295,0.00026106329454331,-0.449450426187384
89.4375,-0.556181254803506,-3.48653209434842e-05,-0.054652552362815
89.5,-0.493577083455234,-0.000374444169773427,0.33398683295655
89.5625,-0.375017633450246,-0.000664053471135677,0.644075198695364
89.625,-0.229628717008924,-0.000807563030968852,0.815310312117566
89.6875,-0.0875384405367962,-0.000743876083706502,0.816395622578068
89.75,0.0290799175363554,-0.000475014156336461,0.655449570522722
89.8125,0.111146695960702,-7.15825100794522e-05,0.379190186745449
89.875,0.1619724123272,0.000348161499232653,0.0599457245375905
89.9375,0.191294100144485,0.000658766949809905,-0.225777027999756
90,0.207045877592206,0.000772758801396251,-0.419839093188058
90.0625,0.208947990654401,0.000672617305390831,-0.497976094324373
90.125,0.187214336285685,0.000415566922939727,-0.472618228425897
90.1875,0.127322886043788,0.00010824234164173,-0.382326767080764
90.25,0.018906961605145,-0.000138125099241474,-0.272523956536327
90.3125,-0.135276763224523,-0.000252396672225833,-0.17569615166853
90.375,-0.314675652849769,-0.000228810515371343,-0.0993334910024988
90.4375,-0.48328677385539,-0.000122836881871672,-0.0264430795061094
90.5,-0.598806732037727,-2.08662295023815e-05,0.07201947966282
90.5625,-0.62542741667148,2.08288308820731e-06,0.218646805655841
90.625,-0.545466071560169,-8.19890757214208e-05,0.413488097987724
90.6875,-0.365387344538939,-0.000240656283424648,0.627789613427083
90.75,-0.114004927972698,-0.000395882548353682,0.81069810871513
90.8125,0.166236423370387,-0.00046019334426637,0.906423345244569
90.875,0.431349934224475,-0.000377614796652796,0.874831724335976
90.9375,0.646650198277063,-0.000151280842306917,0.706975672089318
91,0.792636343382271,0.0001539965908357,0.429240470214479
91.0625,0.864586871212523,0.000435354983803337,0.0946059181364242
91.125,0.867291470452218,0.000592246667528766,-0.235153110582675
91.1875,0.80823864000818,0.000567075838022908,-0.50895771860026
91.25,0.692829210565779,0.000368676030089597,-0.699925054664537
91.3125,0.52378915710123,6.77821391630159e-05,-0.808117844473912
91.375,0.304648570451592,-0.000233073455083944,-0.852550178731094
91.4375,0.0450493992953902,-0.000440137389732667,-0.856940012318378
91.5,-0.2352954067134,-0.00050108836305636,-0.835999149346642
91.5625,-0.506563783380223,-0.000418039181692301,-0.788309462427048
91.625,-0.733474768943275,-0.000239059027868841,-0.69855042827625
91.6875,-0.883262816887359,-3.41499390811196e-05,-0.547581783140896
91.75,-0.934127882899725,0.000133474926030438,-0.325527789688748
91.8125,-0.881099739629193,0.00022862808585616,-0.041918273732028
91.875,-0.737324407686896,0.000249990161237505,0.27159158786159
91.9375,-0.53057209521021,0.000220965428208944,0.567191887900271
92,-0.296449390337801,0.000172974861217457,0.793370337105178
92.0625,-0.0706797038664554,0.000130541524090454,0.909322511227925
92.125,0.117354297804428,0.000104452314023236,0.896425156896457
92.1875,0.248570410391255,9.37283914833906e-05,0.763329339715473
92.25,0.315568456094673,9.23183923268448e-05,0.543660797682606
92.3125,0.322122723806721,9.47815770786401e-05,0.287639353079105
92.375,0.281578863913175,9.7249915815948e-05,0.0503393708502512
92.4375,0.214529647410271,9.4078356616386e-05,-0.12042023346069
92.5,0.145641040058098,7.41669731670541e-05,-0.194128283019039
92.5625,0.0993709716365611,2.17194543833015e-05,-0.163976628774402
92.625,0.0947598389491459,-7.64306147850679e-05,-0.0486728070680641
92.6875,0.140271308283431,-0.000219423432522409,0.11079843740703
92.75,0.230326291183894,-0.000383274396945391,0.259433376891249
92.8125,0.345187185717186,-0.000520983162215864,0.340602796384788
92.875,0.454991481292925,-0.000575145227330292,0.3104488145771
92.9375,0.52724475470966,-0.000500137673110688,0.150899749880714
93,0.535595932007993,-0.000285220232862571,-0.122646536209255
93.0625,0.466965101681321,3.24155414204641e-05,-0.462162226087518
93.125,0.324534697869339,0.000372990633874497,-0.797313736032588
93.1875,0.125667993690419,0.000638958805757616,-1.05309933492251
93.25,-0.104145978069367,0.000750970600677387,-1.16975639680905
93.3125,-0.338618429959604,0.000679685978310713,-1.11857187429959
93.375,-0.556151722799824,0.000458254685612553,-0.90825780606323
93.4375,-0.741423594875355,0.00016855598831391,-0.579782265341156
93.5,-0.88302370323537,-9.32524422410961e-05,-0.191817988366214
93.5625,-0.969182264827195,-0.000256411201132536,0.197452439213472
93.625,-0.984742467958359,-0.000302696149220914,0.545127727147667
93.6875,-0.912068228253338,-0.000269011209897064,0.829560403915505
93.75,-0.736673313963489,-0.000224467247894756,1.04606652003465
93.8125,-0.45584106582057,-0.000232840146768902,1.1955563571872
93.875,-0.0865561168532481,-0.000317865999853746,1.27250131001386
93.9375,0.331325991160562,-0.000446930271230209,1.25897900266556
94,0.739275496622955,-0.000541105817088903,1.12871314690726
94.0625,1.07145490280875,-0.000509580592468264,0.86022535453313
94.125,1.27009789497178,-0.00029579606455393,0.453567820186671
94.1875,1.29991571119414,8.55961668969993e-05,-0.0572527217185975
94.25,1.15668362127472,0.000541610625069216,-0.60293584902463
94.3125,0.867247916918087,0.000931396551160768,-1.09116351764868
94.375,0.481363462052499,0.00112110416254883,-1.42939676855528
94.4375,0.058683718239877,0.00103633373800087,-1.55050994665544
94.5,-0.344334369563669,0.000689442142183002,-1.432042461931
94.5625,-0.683426357559719,0.000173665560587382,-1.10207803120142
94.625,-0.929474957903933,-0.000369740910391479,-0.629844813344589
94.6875,-1.06630716035359,-0.000797479228689377,-0.104921724953391
94.75,-1.08632692379956,-0.00100931950304498,0.386995955872012
94.8125,-0.98744630281923,-0.000978388765849519,0.783126276262742
94.875,-0.773478009274865,-0.000752131254266709,1.05162209068114
94.9375,-0.457787795585664,-0.00042195719899617,1.18778434519853
95,-0.0677701977047325,-8.04402141760751e-05,1.20257192775827
95.0625,0.353277872510807,0.000210412271525169,1.11019699319824
95.125,0.749540934716718,0.000428014370652368,0.921013815531308
95.1875,1.06177695481332,0.000576227385000547,0.642526174054492
95.25,1.23993591263277,0.000662398910328552,0.286860831852697
95.3125,1.25527779795815,0.000681177448416909,-0.120382204290358
95.375,1.10776515866719,0.000613508703964879,-0.535812734950456
95.4375,0.826070136328679,0.000437198614162991,-0.902266703194122
95.5,0.460190673272429,0.000143971706460198,-1.16096444222288
95.5625,0.0692752849580509,-0.000241487467347033,-1.26763771443302
95.625,-0.291272094129976,-0.000650681827672162,-1.20632084401926
95.6875,-0.579539330108291,-0.000980278206427909,-0.995171188649768
95.75,-0.771502273895175,-0.00112373066445721,-0.681814091955893
95.8125,-0.860157258976091,-0.00101414671019708,-0.329863911824123
95.875,-0.851352222375571,-0.000655550103126602,-0.00162092624715984
95.9375,-0.758979120880558,-0.000124218015062971,0.256909455911496
96,-0.601568197250537,0.000456755884876398,0.42393395182566
96.0625,-0.400865952892059,0.000952942096601523,0.501152849425657
96.125,-0.181522607261576,0.00125280844468514,0.506268705556668
96.1875,0.0296802088176377,0.00129575516758504,0.462806425492507
96.25,0.20625750249289,0.00108692668955894,0.391539591622222
96.3125,0.326131926539096,0.000690982533825731,0.306208215634609
96.375,0.376176933396303,0.000205580509783887,0.213775405408657
96.4375,0.355284011408926,-0.00027198228743626,0.117451718563632
96.5,0.274401766262089,-0.000667974875747368,0.0199936236988659
96.5625,0.153216927052247,-0.000938095330853934,-0.074526264019523
96.625,0.0146284861003845,-0.00106122378285689,-0.160796941044516
96.6875,-0.120848754529161,-0.00103111214594161,-0.233206442210507
96.75,-0.238639243804596,-0.000852902417136328,-0.286278332911698
96.8125,-0.330547449121046,-0.000545361818165943,-0.313958828355857
96.875,-0.392554109574964,-0.000145688652381521,-0.308379956981266
96.9375,-0.421710028094714,0.000287532515703268,-0.259679358096889
97,-0.414224217994864,0.000677917549457504,-0.158369180177428
97.0625,-0.366090315789466,0.000944869993421434,-0.000482005900200234
97.125,-0.276105212538188,0.0010258706437068,0.206140510373284
97.1875,-0.149661250498842,0.000899416401653517,0.437489562837451
97.25,-0.0010038253031326,0.0005971899214661,0.654117534293051
97.3125,0.147867475744372,0.000197665022929689,0.808510712993913
97.375,0.271999323358431,-0.000197939076480297,0.857908338407588
97.4375,0.350549494530446,-0.000497878849381812,0.778640308059608
97.5,0.3734488451785,-0.000647205082928508,0.576664247077328
97.5625,0.344929498447697,-0.000640040631940424,0.289733665138613
97.625,0.282359380941034,-0.000513667004668705,-0.0206026484188542
97.6875,0.210712100104644,-0.000328504648670735,-0.285235089137499
97.75,0.154750841681651,-0.00014317335032191,-0.446858551795622
97.8125,0.131828571287393,4.68405816004519e-06,-0.476096112433349
97.875,0.147762739147704,0.000104341250536902,-0.379167122159967
97.9375,0.196791231891822,0.000164244250888219,-0.19496371497225
98,0.264881622055443,0.000197254372264325,0.0169070181851118
98.0625,0.334472197787397,0.000208486759327065,0.192746480839947
98.125,0.388587444054311,0.00019265877981206,0.280771862164982
98.1875,0.413152664091038,0.000141678773658365,0.252323136607981
98.25,0.397670781888374,5.70849852186244e-05,0.10642331624862
98.3125,0.335437659626614,-4.12258913454246e-05,-0.13178958674835
98.375,0.224575549585946,-0.000117157903183935,-0.41687378896749
98.4375,0.0702877014000169,-0.000132930000709299,-0.691226715355819
98.5,-0.112620156590761,-6.99841361874223e-05,-0.894507559005413
98.5625,-0.298922370685079,5.47304469031728e-05,-0.974101989210065
98.625,-0.455794616970282,0.000187599958253674,-0.896337420576257
98.6875,-0.549917361859459,0.000256429792844254,-0.65704296706278
98.75,-0.557428763268534,0.000202374923313804,-0.28849550282214
98.8125,-0.47339938321251,1.21728129334711e-05,0.141050574794938
98.875,-0.316805566084693,-0.000265304004181822,0.538145006684548
98.9375,-0.128041479595569,-0.000528766302184002,0.805192538115085
99,0.0413939687856519,-0.000659738942671688,0.867578371487613
99.0625,0.144250622119119,-0.000570634548163885,0.699003978637138
99.125,0.152777126114092,-0.00024625794990722,0.33585528384949
99.1875,0.0682635892145909,0.000239378060390361,-0.126387212763238
99.25,-0.0789337210526732,0.000740427909944678,-0.556251879649277
99.3125,-0.239256189575837,0.00108721021452056,-0.823509323543856
99.375,-0.36032743603169,0.00114791630920282,-0.839347651804834
99.4375,-0.40398313107668,0.000879590035461425,-0.586104406931381
99.5,-0.357843342224463,0.000347282786344634,-0.12580189993101
99.5625,-0.237487008481413,-0.000296745698717429,0.416454513779967
99.625,-0.078950945883178,-0.000865587924642364,0.889533058716167
99.6875,0.0750688959380192,-0.00120114059262572,1.16187774139788
99.75,0.189767812581869,-0.00122428445208042,1.16067941276374
99.8125,0.248128324813433,-0.000954361406403363,0.891927966325879
99.875,0.253034106463088,-0.000493076296417234,0.43543517007976
99.9375,0.221832975844853,1.82162227474686e-05,-0.0824018366291249
100,0.176559987757213,0.000449132353394411,-0.52799752809608
100.0625,0.134416298677908,0.00071894036501654,-0.7986834370572
100.125,0.10242747870617,0.000810376915592111,-0.847676306244711
100.1875,0.0779285814123712,0.00075734715057445,-0.689666257452493
100.25,0.0537575066437565,0.000616708003525546,-0.387969759867272
100.3125,0.0250305207689956,0.000439034020448843,-0.0301572362567831
100.375,-0.00605437147100434,0.000250285871580199,0.298249877765618
100.4375,-0.0297288300190518,5.05047609623819e-05,0.533572525478229
100.5,-0.0326447254074895,-0.000171328286594845,0.642805007897666
100.5625,-0.00441437697315353,-0.000415166818310505,0.621862448118658
100.625,0.0563114494215119,-0.000654104905177122,0.48726584731635
100.6875,0.138916669080823,-0.000835406628252499,0.266508467542214
100.75,0.22227617927813,-0.000898566317990203,-0.008869300617707
100.8125,0.279989869592026,-0.000800094563773578,-0.306102571618436
100.875,0.287412495011415,-0.000532564256012419,-0.591117224190404
100.9375,0.228113315127376,-0.000131306882240979,-0.828098421061976
101,0.0980128223454783,0.00033195629410677,-0.981008376337757
101.0625,-0.0934051867447299,0.000766847087048355,-1.01788608233476
101.125,-0.324361819435572,0.00108928727451061,-0.917029382514293
101.1875,-0.563621707689128,0.00124410474731086,-0.673054979878871
101.25,-0.774185245616799,0.00121291532891127,-0.300780668264209
101.3125,-0.917648345019017,0.00100371878485454,0.164304153405926
101.375,-0.959410671224443,0.000634445642682219,0.66910539712291
101.4375,-0.874747502528067,0.000129650734904809,1.14886022734974
101.5,-0.655057596474384,-0.000462348690330034,1.53505818799551
101.5625,-0.312745590425455,-0.00105048060762824,1.76464276164223
101.625,0.117233006835581,-0.00151021899744771,1.78990523841319
101.6875,0.580703822789361,-0.00172073476860802,1.58815636850211
101.75,1.01269677516294,-0.00159975223580526,1.169495405882
101.8125,1.3494068961698,-0.0011251411650547,0.580250837067955
101.875,1.54068085511005,-0.000354609185264772,-0.100367533370621
101.9375,1.55956682529801,0.000553860793974826,-0.771685727123721
102,1.40631609812513,0.00134781838676992,-1.33000066681057
102.0625,1.10608977565843,0.00176209380438504,-1.69024099393085
102.125,0.701739876570901,0.00165056776419745,-1.80508440153759
102.1875,0.244502597597506,0.00104624775221382,-1.67562249186495
102.25,-0.214350365090355,0.000125870039671134,-1.34977554164598
102.3125,-0.628934427062597,-0.000852052292085679,-0.908472530940186
102.375,-0.961066734539005,-0.00160766143317048,-0.443747593817842
102.4375,-1.18087954500518,-0.00190566840204243,-0.035703847438053
102.5,-1.26773479446686,-0.00164520563454874,0.264447587617192
102.5625,-1.21275604468529,-0.000925333957183775,0.44053211003536
102.625,-1.02269723809914,1.96428240862988e-05,0.506208180054324
102.6875,-0.723223616806078,0.000951056040354821,0.49208937432536
102.75,-0.358928694952259,0.00168276523423773,0.43131139582395
102.8125,0.0119104211408681,0.00208170538601186,0.349377442361789
102.875,0.327888986050033,0.00207753656907898,0.261351442163718
102.9375,0.537988926769644,0.00168916466626705,0.175593999031503
103,0.613955214773361,0.00103201016796968,0.100098193687332
103.0625,0.557246480217702,0.000265783164054654,0.0465472253223162
103.125,0.397865728317846,-0.000480320418832597,0.0288764776080833
103.1875,0.185188216880153,-0.00112498447940472,0.0565102617722691
103.25,-0.0262090061153562,-0.00160665182394584,0.125836111444544
103.3125,-0.190961180690836,-0.00186733723442362,0.215123682546836
103.375,-0.28294171645369,-0.0018658374655918,0.287057101726305
103.4375,-0.298186772291835,-0.00160056630664798,0.299689124745749
103.5,-0.250863653282412,-0.00111243619527345,0.222461595478146
103.5625,-0.164980249626417,-0.000469758920227133,0.0509540657712655
103.625,-0.0657109216925621,0.000238794771926229,-0.186261057390427
103.6875,0.026391657199866,0.00090507777964791,-0.432547267553088
103.75,0.0970016079574965,0.00141505174456701,-0.619135994108818
103.8125,0.136454370846126,0.00168079825477857,-0.686677430762549
103.875,0.137528529597446,0.00167163163641585,-0.604526953768541
103.9375,0.0950864031563801,0.00141991874066325,-0.380629315547551
104,0.00862536543576953,0.00100855710465963,-0.0585646083466978
104.0625,-0.113332058656829,0.000546245507628369,0.296616001724748
104.125,-0.249739611167077,0.000120138428604127,0.617895228041631
104.1875,-0.367424819350706,-0.00024840337761764,0.853637666255797
104.25,-0.427023703584901,-0.000598866952300919,0.976866902210508
104.3125,-0.39364323574268,-0.00097116397517683,0.984511352461452
104.375,-0.249015844124533,-0.0013395897807896,0.889112684587836
104.4375,-0.000665250068949436,-0.00161285304316826,0.708423576784432
104.5,0.315800910552399,-0.00168788574942332,0.458485291189877
104.5625,0.642874159500275,-0.0014828353799758,0.153248461449447
104.625,0.914350464682503,-0.000951585898556975,-0.190085032224598
104.6875,1.07153631223074,-0.00011906863475824,-0.544132152314294
104.75,1.07740565073398,0.000866239014569393,-0.86806592414331
104.8125,0.924549034460946,0.00172455101619451,-1.11166606685759
104.875,0.635125518112516,0.00216368581545577,-1.22675795295098
104.9375,0.25383518845418,0.00204509207629255,-1.18228251041216
105,-0.162981953932247,0.0014207927213827,-0.976973264929958
105.0625,-0.558404341522394,0.000468770000304978,-0.644014984179204
105.125,-0.883337517501781,-0.000576384813944923,-0.244991047373962
105.1875,-1.10126631477042,-0.00146671418355294,0.145389506710195
105.25,-1.19007470116426,-0.00197416003695319,0.458688968407225
105.3125,-1.142505624497,-0.00196723049890468,0.649673929278919
105.375,-0.966513709371276,-0.00148439484133042,0.705378394634286
105.4375,-0.685621938990403,-0.000685187278637735,0.644119386795746
105.5,-0.338195703488648,0.000246144510477407,0.506081073771226
105.5625,0.0259267317938855,0.00113334842472741,0.339819430368758
105.625,0.352381494762335,0.00180991033855441,0.189689471308625
105.6875,0.59223233109181,0.00213605650869254,0.0877492283810384
105.75,0.712684712045615,0.00203705201382627,0.0510776710402034
105.8125,0.70532853629369,0.00153963419178875,0.083016930933874
105.875,0.588948365727995,0.000753580278432148,0.175723726764587
105.9375,0.405472363561505,-0.000183153017920557,0.311940988240295
106,0.209846620424151,-0.00112713313809044,0.465556895433597
106.0625,0.0566255519787157,-0.00192449070617304,0.602237287818327
106.125,-0.0129402754385209,-0.00241233321227925,0.682165059640645
106.1875,0.0200929606630868,-0.0024517730636907,0.666232515790446
106.25,0.149193911959881,-0.00199371756454362,0.525240136141523
106.3125,0.34503168211627,-0.00110985058085949,0.249695275418852
106.375,0.56245126318609,5.13029317689234e-05,-0.143270801869605
106.4375,0.749533868256843,0.00129941391311175,-0.60891322760426
106.5,0.856777831440035,0.00238891090359998,-1.08102484947538
106.5625,0.845208187566471,0.00302598037730362,-1.48400603742204
106.625,0.692938430768756,0.00296989502268316,-1.74765644101476
106.6875,0.399942499123738,0.00220953004448223,-1.82079401511339
106.75,-0.00948604275714449,0.000994551971629912,-1.68056388464696
106.8125,-0.487550416173239,-0.000355602758472528,-1.33600837848054
106.875,-0.968068879641782,-0.00157092606264028,-0.826243029945574
106.9375,-1.3762300971343,-0.00242757767027652,-0.214636152043748
107,-1.6419318119275,-0.0027522416902168,0.419556728699135
107.0625,-1.7140750332411,-0.00249636879098809,0.991256361994645
107.125,-1.5721826676032,-0.0018627688312194,1.42101582879541
107.1875,-1.23190617952469,-0.001192883209428,1.64740739406111
107.25,-0.742519141204067,-0.000638524933804242,1.63889575780658
107.3125,-0.176908118589556,-0.000183145468544218,1.40246782007031
107.375,0.383056452337897,0.000208379029972707,0.985637504270006
107.4375,0.861543983344898,0.000575015898472181,0.469258264565038
107.5,1.20021469246437,0.000981344219397193,-0.0489570970043718
107.5625,1.36386808754776,0.00151886417833235,-0.476900672844238
107.625,1.34049723561516,0.00210993926679029,-0.750262032934134
107.6875,1.13798696599376,0.00242521604792676,-0.847204414634317
107.75,0.780408033590362,0.00230006260152051,-0.790095978196619
107.8125,0.30598268238928,0.00185520213230483,-0.633160716604233
107.875,-0.23319077255049,0.00122996732663928,-0.440169427881395
107.9375,-0.771598613353597,0.000428424047646842,-0.26037090785197
108,-1.23384806840118,-0.000602476929973194,-0.111916658602826
108.0625,-1.54340356578249,-0.00173870623498695,0.0206351989649345
108.125,-1.63636148709716,-0.00258439204047073,0.173673827179531
108.1875,-1.47727315031585,-0.00286217287867195,0.381905202716978
108.25,-1.0719994737668,-0.00260995601752154,0.655227322514526
108.3125,-0.472427347352321,-0.00192605002532337,0.965141079575846
108.375,0.230083414236314,-0.000860671901915663,1.24711040523172
108.4375,0.922051646127172,0.000502888275735486,1.41890203979563
108.5,1.49177316557318,0.00191233405357646,1.40838342850294
108.5625,1.85307544963444,0.00289619454315366,1.1802540753976
108.625,1.96215371937117,0.00303818332731522,0.751409074765083
108.6875,1.82305346797094,0.00229977673448849,0.188998990062325
108.75,1.48120171438858,0.000903937737246682,-0.408055406800126
108.8125,1.00820776471245,-0.000852285635862677,-0.93707620219747
108.875,0.483522338584949,-0.00259369811401248,-1.31886302837101
108.9375,-0.0213340993545569,-0.00385832627367628,-1.5147590933246
109,-0.452224842725519,-0.00419631572913362,-1.52872397015893
109.0625,-0.774815562164299,-0.00338340855739581,-1.395750466189
109.125,-0.97198057761256,-0.00159266944907279,-1.16309499118874
109.1875,-1.03955887964491,0.000712753953097041,-0.872835291567756
109.25,-0.983377413197786,0.00301238100686947,-0.552589242654107
109.3125,-0.818693870786463,0.00481607212108201,-0.216810432474634
109.375,-0.571143720886547,0.00568478025500564,0.123981203737359
109.4375,-0.276969371257349,0.00533328992889776,0.452133118170871
109.5,0.0196149827887592,0.00378297936630778,0.736514735963474
109.5625,0.272702898245967,0.00140625585792542,0.934900324938964
109.625,0.443466807691262,-0.00122535789142176,1.0048358108086
109.6875,0.50874688622083,-0.00355641974442381,0.918750182919039
109.75,0.46642797771078,-0.00516097866037878,0.67705134836796
109.8125,0.335559259195786,-0.00576985172281317,0.313647124298262
109.875,0.151037919945337,-0.00529649232366794,-0.108713603992631
109.9375,-0.0454139502687912,-0.00387091195129607,-0.512052043518647
110,-0.215113504303721,-0.00182079336439313,-0.821390256660464
110.0625,-0.330301470382351,0.00043016726166949,-0.982016959389564
110.125,-0.378299774495378,0.00248083950300265,-0.971032357470392
110.1875,-0.361703168561084,0.00401315742863653,-0.800683958585579
110.25,-0.295592786684984,0.00480564184628949,-0.513619033440847
110.3125,-0.20323352846981,0.00475191398123396,-0.172150987431888
110.375,-0.111417715029074,0.00389464073114266,0.155500591400568
110.4375,-0.0459370168953566,0.00243464736353732,0.409140705699963
110.5,-0.0271517110371586,0.000682134856192202,0.548403591472812
110.5625,-0.0656570509939747,-0.00102840281477437,0.560660622233925
110.625,-0.15860306794128,-0.00241195210478571,0.463606623152772
110.6875,-0.287899593808219,-0.0032756329796532,0.301504942427517
110.75,-0.421766956246422,-0.00353936334966463,0.134934191883774
110.8125,-0.520485023011923,-0.0032414034772768,0.025390515026083
110.875,-0.545796865759441,-0.00252060579944834,0.0179730205333492
110.9375,-0.471763495936123,-0.00156896054026198,0.126864619261102
111,-0.293727329637848,-0.000570185587095326,0.328520723403108
111.0625,-0.0320882727609292,0.000345338158808121,0.565846078496345
111.125,0.270984127207885,0.00111095330231509,0.763374767531905
111.1875,0.56142092861659,0.0017039980727998,0.849590865562359
111.25,0.786837847116407,0.00211455909500047,0.779540222810106
111.3125,0.909544681552084,0.00232286815796035,0.550140449708074
111.375,0.914869894144018,0.00229694565062931,0.202656615457369
111.4375,0.812429767773594,0.0020082100897847,-0.188898958762132
111.5,0.630565525201074,0.00145350445720467,-0.539718996499516
111.5625,0.406548081613801,0.000672874482450663,-0.77907110871196
111.625,0.176348541294549,-0.000243063546645419,-0.869684762985173
111.6875,-0.0326286385072797,-0.00116020694268275,-0.815431866832299
111.75,-0.204160241021591,-0.00192423898290755,-0.655512240393883
111.8125,-0.331637164147154,-0.00239679994060968,-0.448249982262377
111.875,-0.414397986571775,-0.00249386150577324,-0.251022098685991
111.9375,-0.45443253090919,-0.00220910472414993,-0.103524156415531
112,-0.455039679050116,-0.00160877615822428,-0.0194742418897423
112.0625,-0.421444772972214,-0.000802251568930734,0.0119239219928005
112.125,-0.362003144161162,9.13633200244723e-05,0.0171713046435512
112.1875,-0.28818822634916,0.000962806051943414,0.0268810413325012
112.25,-0.212310534664429,0.00171611919041938,0.0658639991549684
112.3125,-0.143422925478475,0.00226543647164442,0.147425927809468
112.375,-0.0832947089739161,0.00253483219529909,0.27188934716772
112.4375,-0.0248443752900113,0.00246434922478523,0.427604882859166
112.5,0.0453828487991694,0.00202129768393715,0.592536925521619
112.5625,0.140936798636439,0.00121716991179891,0.735743620026512
112.625,0.267634218901737,0.000128758814115709,0.819741416933748
112.6875,0.417596382555605,-0.00108779689819821,0.805606508557829
112.75,0.568211021151431,-0.00220938799262074,0.661924088481703
112.8125,0.68721562833343,-0.00299443434862198,0.376493509442227
112.875,0.742486201425294,-0.00325103833633227,-0.0328852684919884
112.9375,0.712918262685714,-0.00289295043889991,-0.51366869640827
113,0.596051392283323,-0.00196532545926903,-0.984153539325236
113.0625,0.409237054653191,-0.000642823949428932,-1.35040464494259
113.125,0.183755105843138,0.00079872917254146,-1.53095231394886
113.1875,-0.0457644775594453,0.00204779103514392,-1.48170852010124
113.25,-0.252267492082875,0.00285324704186353,-1.21212066713901
113.3125,-0.423079236580197,0.00310049642137401,-0.785698834257571
113.375,-0.559947320443049,0.00281555665725598,-0.303232172720562
113.4375,-0.672678571514105,0.00210932105327123,0.126629262168527
113.5,-0.769559259993216,0.00112215245829876,0.41975154330318
113.5625,-0.84916117513746,5.38763275225763e-06,0.540666218728772
113.625,-0.897497279301669,-0.00108072851172549,0.510053982921486
113.6875,-0.892083145564719,-0.00198838839098479,0.393165791298237
113.75,-0.811353090076594,-0.00261145849826401,0.273776729550858
113.8125,-0.645445054392573,-0.00288407326155916,0.223457241497406
113.875,-0.403668447220612,-0.00275635924024949,0.277313782830541
113.9375,-0.115291410499164,-0.00219231667516379,0.424446803948654
114,0.176972964097536,-0.00120738694613125,0.615478437943101
114.0625,0.42844210496857,8.51591291798094e-05,0.783053101061613
114.125,0.604644731030126,0.00146736691658505,0.86676194087336
114.1875,0.689837585660958,0.00266623229024141,0.833094968335962
114.25,0.689131609695747,0.00342777389113725,0.683836514064546
114.3125,0.624103923388541,0.00357594718871463,0.451364342283393
114.375,0.524184104404663,0.00304864073150296,0.184379990212987
114.4375,0.41734697365353,0.00191869894936746,-0.0693260506234277
114.5,0.323331825404593,0.000394424363227295,-0.276378872820525
114.5625,0.251064711441322,-0.0012172182935296,-0.423442916416327
114.625,0.20001399267299,-0.00258665587757957,-0.51459445608277
114.6875,0.16376705432209,-0.00344787478057178,-0.563348436174512
114.75,0.133738084917219,-0.00365540622365966,-0.583733522121794
114.8125,0.101589155030409,-0.00319866465260734,-0.584185665819602
114.875,0.0601478237480052,-0.00218833252029292,-0.565948039745124
114.9375,0.0036140608327755,-0.000829461260566429,-0.525323019399164
115,-0.0718668233581187,0.000619061721041207,-0.457633332997494
115.0625,-0.166715954683731,0.00189890438045836,-0.360628592523143
115.125,-0.27592865053536,0.00280342582378552,-0.236074750080326
115.1875,-0.387769086410203,0.00320431581106463,-0.0896181199121944
115.25,-0.484435426782075,0.00305436442585371,0.0700973472165252
115.3125,-0.545264218852246,0.00238583824117679,0.232083638380858
115.375,-0.551854970686533,0.00131523534239106,0.383186089982021
115.4375,-0.493449368988429,4.11483555152112e-05,0.508392881916262
