time,ax,ay,az
0,1.78196005270877,0.00597480312977176,0.249829185412069
0.0625,1.94956759197991,0.00475481122229173,0.00673551088686231
0.125,1.86584465169391,0.00222035475434314,-0.195812865529212
0.1875,1.55213993158527,-0.000596796131246115,-0.358553466368687
0.25,1.069028110456,-0.00322470039176146,-0.482434772664628
0.3125,0.503893182133901,-0.00531258012789793,-0.56738312032667
0.375,-0.0475591742420637,-0.00641055840615461,-0.614983982500982
0.4375,-0.501149850391216,-0.00608078714689469,-0.632204912508444
0.5,-0.800244514373335,-0.00426435396972764,-0.632582431575199
0.5625,-0.923933344117251,-0.00164882719275662,-0.632635338729775
0.625,-0.885831802223303,0.000887144720501124,-0.644023211982338
0.6875,-0.724847561305152,0.00295181257763142,-0.664804548902028
0.75,-0.491584855346705,0.00442363006033871,-0.674615419711798
0.8125,-0.235016561879954,0.00515796856681057,-0.637783871630573
0.875,0.00665878171085876,0.00498666441488447,-0.515404999133881
0.9375,0.209081398241232,0.00395334720321345,-0.283335342667793
1,0.359331680406684,0.0024330670764848,0.0503675749724518
1.0625,0.450691863974918,0.000848100748920122,0.436213271164333
1.125,0.47793920666422,-0.000534409521677846,0.78800465966814
1.1875,0.435801799482993,-0.00153506959965705,1.00268539943284
1.25,0.321344817562765,-0.0020926607800832,0.990746720657692
1.3125,0.138892242214722,-0.00231320544498975,0.707933674968339
1.375,-0.0954180182331071,-0.00240279729968663,0.177263751075547
1.4375,-0.35252246796803,-0.00248631202378674,-0.507439465460467
1.5,-0.594556618921763,-0.00252645587850377,-1.19968106502457
1.5625,-0.783756542561246,-0.00247999534704208,-1.73607821300257
1.625,-0.893382508918927,-0.00232549227124528,-1.97952373145961
1.6875,-0.916554532750245,-0.00193545691595159,-1.85648440012053
1.75,-0.86913346943207,-0.00108807093996122,-1.37669217706078
1.8125,-0.784667545634645,0.000324742639281395,-0.629079440320524
1.875,-0.702324816924113,0.00209904273610618,0.244406150032151
1.9375,-0.651571956165756,0.00383627910965952,1.08823349770047
2,-0.639016076728204,0.0052184006210274,1.77297773303058
2.0625,-0.642568549245908,0.00600184260299358,2.22274615913035
2.125,-0.615883661820253,0.00585458279231794,2.42266219695896
2.1875,-0.502562138084725,0.00441419780821142,2.40613807546948
2.25,-0.256085120671577,0.00167621649055663,2.2288920551513
2.3125,0.140866399867669,-0.00167650757698451,1.9410438467209
2.375,0.66426744132352,-0.00464696317215035,1.56857605631657
2.4375,1.24829889586376,-0.00654757161592561,1.11107794661176
2.5,1.79746531683871,-0.0070654757425454,0.555725542268338
2.5625,2.20815470700648,-0.00606373654813451,-0.0993862427861991
2.625,2.39350880935732,-0.00354713847391946,-0.823495552510489
2.6875,2.30447214762683,-4.5845791613517e-05,-1.54361505187584
2.75,1.94119861483393,0.00294392348299928,-2.15314580922013
2.8125,1.35210730443115,0.00403598439168422,-2.5374796976535
2.875,0.6217330224357,0.00320146249004604,-2.60843917972001
2.9375,-0.148266725392157,0.000942585559035446,-2.33533668464947
3,-0.859119345791049,-0.00213414321000677,-1.76090168138499
3.0625,-1.43065186710993,-0.00507395680670891,-0.995257675976054
3.125,-1.8096235428639,-0.00653162409061785,-0.188770252201622
3.1875,-1.97056731344752,-0.00507151056458704,0.507876936501179
3.25,-1.91157772897351,-0.000964221099244211,0.98337487109186
3.3125,-1.64871759963841,0.00340695641170801,1.19222285619239
3.375,-1.21215661283479,0.00673354535429389,1.15952039099337
3.4375,-0.645256377858932,0.00878079505642159,0.963363051379082
3.5,-0.0056153542571305,0.00915724425940954,0.701909420682495
3.5625,0.634654831003143,0.00733179300986185,0.45736355321757
3.625,1.19251091957474,0.00326505814669123,0.26979518388182
3.6875,1.58325292839627,-0.00170860275111692,0.129716895485968
3.75,1.73494799320801,-0.0053036380198233,-0.00881137643302843
3.8125,1.60487867808371,-0.00659867976897784,-0.200416932207313
3.875,1.19320453663141,-0.00596298504433709,-0.477176473133951
3.9375,0.548998608755767,-0.00378020595173657,-0.826200365659304
4,-0.234447011453716,-0.000524574586001315,-1.18489924497487
4.0625,-1.03513506314978,0.00294941064904152,-1.45616452357183
4.125,-1.72549336310049,0.00536105749892963,-1.53835872946088
4.1875,-2.19749739161488,0.00546830551739265,-1.35964641673573
4.25,-2.38344871777064,0.0032275994520425,-0.904684373409331
4.3125,-2.26730205448366,-0.000213790627090874,-0.224461701688353
4.375,-1.88417366042351,-0.00377160106953065,0.573992746122514
4.4375,-1.30899898522381,-0.0066900467617489,1.35446265629112
4.5,-0.638114162899919,-0.00826352266597496,1.98606125852567
4.5625,0.0310373659111147,-0.0078892671506867,2.37451243957707
4.625,0.6171258197799,-0.00539063060024308,2.48109965536124
4.6875,1.06579384243099,-0.00134550730451676,2.32489619978403
4.75,1.35318699598915,0.00302400987790773,1.96962369820884
4.8125,1.48329902933954,0.00654278217282156,1.50114130019192
4.875,1.48150061864975,0.00856829645896943,1.00362168991074
4.9375,1.3867091268763,0.00889210283150637,0.541502658216887
5,1.24384521456651,0.00754771724885234,0.151064442339217
5.0625,1.09711204290588,0.00482610487583915,-0.158502411227664
5.125,0.983858794453114,0.00135849710698532,-0.397778591216738
5.1875,0.928732030711887,-0.00200260665085072,-0.587942210496765
5.25,0.938444609986824,-0.0045125706216763,-0.753216952743161
5.3125,0.998385395233914,-0.00577480116080267,-0.916217189438982
5.375,1.07285509442844,-0.00574732531838291,-1.0952591098092
5.4375,1.11044094516573,-0.00465620194498787,-1.30165414042171
5.5,1.05478774562437,-0.00294381871918617,-1.53559843491464
5.5625,0.85911827373643,-0.00120606029146255,-1.78113519547202
5.625,0.501017802761786,6.27361927862512e-06,-2.00271429620182
5.6875,-0.00695570449319027,0.000424652540066403,-2.14684175027226
5.75,-0.614771698569557,9.8035528170312e-05,-2.15137062562918
5.8125,-1.24246100874943,-0.000708864289911917,-1.96219028156585
5.875,-1.7966136920441,-0.00157794884834217,-1.55343026820797
5.9375,-2.19177509520748,-0.0019861385978263,-0.944404077493799
6,-2.37076674813067,-0.00144193198830793,-0.205894572360027
6.0625,-2.31791664327123,0.000192410014867334,0.549223363404594
6.125,-2.0611584115814,0.00244261608211962,1.19106498126728
6.1875,-1.66236936912493,0.00458951057831402,1.60764187758066
6.25,-1.19903805908873,0.00617567284744709,1.73906324062712
6.3125,-0.743125158235159,0.0069315006029048,1.59914347546141
6.375,-0.343809175491257,0.00655788393338087,1.27541771006506
6.4375,-0.0193550797301083,0.00480024315031825,0.905127143196185
6.5,0.239887436219963,0.00177033294209211,0.632924094231439
6.5625,0.459225840924866,-0.00183570785690891,0.563011119069514
6.625,0.663129772185589,-0.00506192854981071,0.721520160709709
6.6875,0.860838400289252,-0.00726910127787528,1.04271749298824
6.75,1.03944282572368,-0.00819314091386528,1.38548025203413
6.8125,1.16693306837128,-0.0077036950878098,1.57662142116721
6.875,1.20395467492357,-0.00579807133324544,1.46833576362244
6.9375,1.11978979988668,-0.00278510183680822,0.991564156677486
7,0.90653326186014,0.000669513849850158,0.187495754172495
7.0625,0.586115909614757,0.00379744122120424,-0.794165114438509
7.125,0.207455784500593,0.00602131993184489,-1.73113099898154
7.1875,-0.165397618805494,0.00701123455378213,-2.38862458591065
7.25,-0.470042073933484,0.00663805271212444,-2.58567768585095
7.3125,-0.661656435745443,0.00502106841553062,-2.24751515169736
7.375,-0.722762256613287,0.00259106349283733,-1.42821936564756
7.4375,-0.663848677920727,-2.7975317031675e-05,-0.297208500652025
7.5,-0.515270798296481,-0.00227141684195483,0.905711943895636
7.5625,-0.313950832699224,-0.00378458710253282,1.93256142873981
7.625,-0.0901307427942882,-0.0044248838292232,2.58792705889385
7.6875,0.140853955800764,-0.00422821861901389,2.77105926267067
7.75,0.378932481207599,-0.00339374917144831,2.4890142386227
7.8125,0.632074272505735,-0.00223637158195505,1.8401673083406
7.875,0.904716497237094,-0.00106697141547363,0.976466592416973
7.9375,1.1867501062846,-8.75570942325881e-05,0.0583171304864801
8,1.44776951049876,0.000632118641301814,-0.783554594392844
8.0625,1.63933329010954,0.00113117090053569,-1.469189026019
8.125,1.70503377489532,0.00150564401884208,-1.97045891927419
8.1875,1.59533818157894,0.00182874913551129,-2.29628363254211
8.25,1.28247049768768,0.00207653891316371,-2.47085029573794
8.3125,0.770620031652102,0.00215132997403079,-2.51453385158745
8.375,0.0984072212412725,0.0019925559734739,-2.43434926360492
8.4375,-0.666866807176034,0.00161589525840273,-2.22573974926109
8.5,-1.44110305389502,0.00107510151666014,-1.88250147671895
8.5625,-2.13772444740871,0.000419717875240334,-1.4086408050126
8.625,-2.68056275482422,-0.000332435597224619,-0.825951133843731
8.6875,-3.01261632914391,-0.00120368405484751,-0.17378109134125
8.75,-3.09990314458025,-0.00214635529591514,0.498544809142036
8.8125,-2.93145550042431,-0.00290765620981191,1.14273928629751
8.875,-2.51749352441839,-0.00327033713032065,1.72067085845669
8.9375,-1.88765492288824,-0.00322705617973644,2.20742778496728
9,-1.09003295582678,-0.00280310154512103,2.58731203125802
9.0625,-0.190303540938313,-0.00194627075393654,2.84539826252261
9.125,0.730818837462912,-0.000587358174644856,2.95975883873382
9.1875,1.58360098234925,0.00121653088053403,2.89955941045973
9.25,2.27951377166495,0.00311192053428064,2.63181851118573
9.3125,2.74456941669179,0.00451053865263994,2.13565271177846
9.375,2.93288518349707,0.00500915223124964,1.41896940723416
9.4375,2.83662134961662,0.00457638799397478,0.530525096513314
9.5,2.48882710601297,0.00335000281698729,-0.438943858442368
9.5625,1.95747605431376,0.00150765461736279,-1.36930659801588
9.625,1.33156050311126,-0.000688641361321906,-2.13515302251166
9.6875,0.702632724736536,-0.00284736887682709,-2.63470849695081
9.75,0.146700523151204,-0.00450923020572341,-2.8145145916288
9.8125,-0.288683555867262,-0.00529349417239333,-2.68177428348818
9.875,-0.588969368934223,-0.00502241179600942,-2.30018851827514
9.9375,-0.768315822778296,-0.00375099494449758,-1.77063290444802
10,-0.858740191935102,-0.00173231542746749,-1.20309938219998
10.0625,-0.896844302876285,0.000631388500177426,-0.68907014896243
10.125,-0.912565157297051,0.00285517613819606,-0.282898663850764
10.1875,-0.923128378815024,0.00447505663460452,0.0028777009089353
10.25,-0.933083739941332,0.00516640145114338,0.188630219879135
10.3125,-0.938902625941698,0.00482082984937197,0.310299396557317
10.375,-0.9350557722366,0.00355140190517553,0.401337317758806
10.4375,-0.91834252152957,0.00164777146701331,0.481014368115166
10.5,-0.888501021941728,-0.000485068234031988,0.552738990314185
10.5625,-0.84520745863149,-0.00240025115904423,0.611307518081682
10.625,-0.783550916024025,-0.00370703763223221,0.653988020682791
10.6875,-0.69106804794729,-0.00417445374657882,0.688750783626601
10.75,-0.548961270269929,-0.00378549614382299,0.734474093126915
10.8125,-0.338339021667278,-0.00271256994196223,0.811947730880722
10.875,-0.049914558097007,-0.00124320279399046,0.929260135777506
10.9375,0.306409343031525,0.000300107191623155,1.06858843254448
11,0.696351264020921,0.00162651120362954,1.1818878705461
11.0625,1.06371915852229,0.00252751019043203,1.20004816799225
11.125,1.34129598716376,0.00290676669483728,1.05471870685432
11.1875,1.46778255754451,0.00277881538403295,0.706268141908778
11.25,1.40586363251819,0.00223580704599977,0.167613785166629
11.3125,1.15547040261319,0.001401307455773,-0.486327284558225
11.375,0.757393195095818,0.000397140862323622,-1.1296858830082
11.4375,0.285292089952435,-0.000665006835532225,-1.61631202982435
11.5,-0.172088442214787,-0.00167389638414039,-1.82179054422091
11.5625,-0.533378425096042,-0.0025056285198608,-1.68350025531775
11.625,-0.744910061175109,-0.00302107971327483,-1.2248464898236
11.6875,-0.792697061103894,-0.00308393834805067,-0.554198787426142
11.75,-0.70254149774816,-0.00260077335990019,0.162859958289188
11.8125,-0.528625513477273,-0.00156853647374443,0.75033670026935
11.875,-0.334670145722777,-0.000103039095632594,1.07324525189441
11.9375,-0.17402325631886,0.00156689307417585,1.07712213996611
12,-0.0751051794047939,0.00313087410522722,0.802656948199974
12.0625,-0.0365200721726221,0.00424358247257688,0.370495405571131
12.125,-0.03263405717198,0.00459493483273537,-0.058887527566637
12.1875,-0.0268038339246477,0.00400731425326154,-0.337097356961436
12.25,0.013007563178957,0.00252245042428698,-0.374556453455356
12.3125,0.101946362283663,0.000417612730439925,-0.167044468189641
12.375,0.233422949433023,-0.00186649130866553,0.206014835049592
12.4375,0.382817589501285,-0.0038409643418765,0.610040650272544
12.5,0.51762673113693,-0.00507761625793091,0.900286934036481
12.5625,0.609689740610434,-0.00529948375010193,0.968021324522464
12.625,0.644647567326068,-0.00445015074591169,0.772880552544032
12.6875,0.62516023338539,-0.00271521809030618,0.351751664638286
12.75,0.567047610421196,-0.000470425098995227,-0.197117053469544
12.8125,0.490360546795955,0.00182148832555317,-0.747749403880747
12.875,0.409338058605869,0.00371203139609443,-1.18538674126232
12.9375,0.325539442865964,0.00484250142933742,-1.43754049890491
13,0.227077042053737,0.00500665594629269,-1.48779271281489
13.0625,0.094386728801662,0.00420177013776077,-1.36979074268909
13.125,-0.0896556355444105,0.00263462854568583,-1.14602279379852
13.1875,-0.329219431623862,0.000656513390978433,-0.880851494115096
13.25,-0.608782462069264,-0.00134184168086663,-0.618320195451143
13.3125,-0.892993034176554,-0.00301461221834149,-0.372342998370349
13.375,-1.13355874127874,-0.00409989610669929,-0.1314176118551
13.4375,-1.28108010440817,-0.00443639192637889,0.125803539780195
13.5,-1.29805280524475,-0.00398753805077123,0.411673886715324
13.5625,-1.16896980288245,-0.0028661752358069,0.715729980438128
13.625,-0.904597435173656,-0.0013164135722645,1.00160251321904
13.6875,-0.539570985792344,0.000361043899006398,1.21576496237916
13.75,-0.124631345655403,0.00188664003384991,1.30448860481992
13.8125,0.283700416686711,0.00303537533406454,1.23235650502499
13.875,0.632914451237796,0.00364123815497328,0.995438674193593
13.9375,0.881524563721407,0.00361167322437357,0.62463782879312
14,1.00257317630428,0.00296546794581181,0.178633262538507
14.0625,0.98436457117554,0.00186215984943436,-0.270381990528116
14.125,0.829939623801008,0.000570191803761187,-0.652831501196635
14.1875,0.55661379460349,-0.000625533433389868,-0.91458995516189
14.25,0.195923588580911,-0.00150779724962814,-1.02353384365719
14.3125,-0.206876771471323,-0.00196134241441922,-0.969854024900655
14.375,-0.595379726970945,-0.00197653435603864,-0.762640915742475
14.4375,-0.908076611974527,-0.00164365557864646,-0.426075659781152
14.5,-1.08814042458751,-0.0011353822738319,0.00251264092630632
14.5625,-1.09541794651317,-0.000660273109027712,0.472768440875022
14.625,-0.917515209501461,-0.000383468287089472,0.921922918964325
14.6875,-0.576207341186732,-0.000357085390056929,1.27915910402034
14.75,-0.126153865553781,-0.000508862147212111,1.47592652021946
14.8125,0.355024346274923,-0.000680944552336357,1.46159748193295
14.875,0.783485154859911,-0.000688109327446918,1.22047927861952
14.9375,1.08842718533556,-0.000384483987275496,0.78385345700546
15,1.22835939386963,0.000268452376763116,0.230754328674296
15.0625,1.19946278092602,0.00115222854272499,-0.325922332267699
15.125,1.03346398357822,0.00200422369499831,-0.766415232344605
15.1875,0.785774876569271,0.00252663750936385,-0.997316933937428
15.25,0.517838966033594,0.00252218667311451,-0.980612091373395
15.3125,0.279518315575947,0.00195125866347704,-0.748069706204687
15.375,0.0972395908626203,0.000912617422606818,-0.394405431803272
15.4375,-0.0285045912183982,-0.00038673234736185,-0.0494296756397517
15.5,-0.116096681607987,-0.00164860115613978,0.163141792364284
15.5625,-0.189424541210103,-0.00253644411109962,0.167137432548583
15.625,-0.263696396088614,-0.00280239804166454,-0.038599267420354
15.6875,-0.336150312522225,-0.00239992440539875,-0.37711158961596
15.75,-0.385453306149656,-0.00147867842749838,-0.717173572168451
15.8125,-0.380231204685938,-0.000304294948519194,-0.917395967949841
15.875,-0.293609660635305,0.000818463266470887,-0.876461542141279
15.9375,-0.118199066369601,0.00160822023747331,-0.572448632942703
16,0.124457889696324,0.00187797536534086,-0.0770871370511272
16.0625,0.384156772350136,0.00160886624855889,0.461289496966058
16.125,0.592815681298361,0.000963111146555828,0.861946778842525
16.1875,0.682811327906471,0.000201467911328003,0.969619491272981
16.25,0.607127546876644,-0.000432420977467406,0.707514518780389
16.3125,0.354779077973614,-0.000786782937635197,0.107967191822777
16.375,-0.0435625683190958,-0.000823576973509109,-0.689831781017733
16.4375,-0.521619850776145,-0.000607525657492123,-1.47515720671805
16.5,-0.993330805653992,-0.000270336279872154,-2.02369678730825
16.5625,-1.37348837836792,4.55005218307619e-05,-2.16059050202199
16.625,-1.5969642749617,0.000242016361435108,-1.80964281874658
16.6875,-1.63114035691974,0.000294010852904905,-1.01446037316155
16.75,-1.47875696874742,0.000241292473465987,0.0737183869301517
16.8125,-1.17169788777725,0.000155918493724544,1.23648836258251
16.875,-0.759051105495846,0.000102642716197868,2.24393183234731
16.9375,-0.294146045420642,0.000107876510605035,2.90890597143922
17,0.175201374348289,0.000148908094062708,3.12538163634821
17.0625,0.610970418287206,0.000169524888641969,2.88254478269587
17.125,0.984061084825327,0.000114758056676188,2.25450675117471
17.1875,1.27071530982761,-3.54300726208669e-05,1.37255698532134
17.25,1.44954390708586,-0.000251116696000799,0.390688471769187
17.3125,1.50177385499341,-0.000459345711319324,-0.545213408172393
17.375,1.4154452189166,-0.000568425369837112,-1.31786616646238
17.4375,1.19205335447849,-0.000506132685061725,-1.84735045838041
17.5,0.852520921130663,-0.000262926824921227,-2.09120426832594
17.5625,0.439103228067925,8.59111081173527e-05,-2.04098735954611
17.625,0.0110416468504918,0.000406357019179214,-1.71960746764224
17.6875,-0.3659629678895,0.000569305452823034,-1.18074528156372
17.75,-0.633957954054593,0.000508712475800184,-0.508327436550495
17.8125,-0.756490692482489,0.000243433794741766,0.188035525656118
17.875,-0.727581574173401,-0.000137802586304426,0.785286448134749
17.9375,-0.572968849204238,-0.000508311000142627,1.16758990170838
18,-0.343122205755256,-0.000736048489974453,1.2520399456152
18.0625,-0.100148057492062,-0.000719399911435077,1.01243829461052
18.125,0.097434762940587,-0.000425830656290691,0.492884233761008
18.1875,0.207629839707045,8.48907830591926e-05,-0.195217250924378
18.25,0.212264016184714,0.000668383175177035,-0.894486447083398
18.3125,0.117429060706875,0.00114173108129896,-1.43712239290625
18.375,-0.0518379036876858,0.00135623598066154,-1.68556660057194
18.4375,-0.259883813581896,0.00125040761060937,-1.56693507364989
18.5,-0.46860754223985,0.000852788057281276,-1.09133655928812
18.5625,-0.6431507622474,0.000266285563252988,-0.348931967026805
18.625,-0.754451807978381,-0.000350726461738009,0.513005029205934
18.6875,-0.779676625179893,-0.000837812575621595,1.32589980966857
18.75,-0.702480198061037,-0.00110477095644198,1.93808741799769
18.8125,-0.514846483396977,-0.00116600655144854,2.24514435650789
18.875,-0.221012590653513,-0.00109709767691356,2.20551653284752
18.9375,0.157714446541065,-0.000947757985260172,1.83988314397594
19,0.579779666621036,-0.000723003608737068,1.21776219991087
19.0625,0.984654791571051,-0.000419627452794878,0.437942056276738
19.125,1.30032818118904,-3.93007381967214e-05,-0.390473973460899
19.1875,1.45667171706962,0.000409445291071405,-1.16198721929808
19.25,1.40195086965914,0.000894218774207158,-1.78277962122485
19.3125,1.11800204901217,0.00131678630875252,-2.17527066771229
19.375,0.629275646315314,0.00151553700947916,-2.28272758417852
19.4375,0.00229943160828094,0.0013743776358173,-2.07638364763769
19.5,-0.665208257687946,0.000892082481290571,-1.56467232518662
19.5625,-1.26323651856737,0.000171553085441836,-0.801075893777798
19.625,-1.69158373191096,-0.000615678042175592,0.114627478225645
19.6875,-1.87940162224456,-0.00128598126895259,1.04615105754501
19.75,-1.79731855769102,-0.00169503806517874,1.84264686554705
19.8125,-1.45969804814707,-0.00177534157556881,2.3692375408215
19.875,-0.917648638174813,-0.00148734381428479,2.53834252544045
19.9375,-0.246005429488395,-0.00080985239858925,2.33216020598328
20,0.471240603560044,0.000194833598824553,1.80826842447543
20.0625,1.15304120739485,0.00134588315882429,1.08512993586042
20.125,1.72874571836811,0.0023288039769271,0.310795561187577
20.1875,2.14114597703422,0.00278004235133777,-0.376046346356166
20.25,2.34726757780059,0.00237644716474077,-0.880563935118196
20.3125,2.31968669122662,0.00115237811165331,-1.17092217387803
20.375,2.05023317595613,-0.0004221698047313,-1.27632722344995
20.4375,1.55588484328165,-0.00198235397551623,-1.26558405390447
20.5,0.884392605008099,-0.00322361787052998,-1.21467472723868
20.5625,0.115808944333746,-0.00379951830780452,-1.17573298521099
20.625,-0.643641131254463,-0.00342060572175958,-1.15910328932602
20.6875,-1.27685599287507,-0.00199707230527749,-1.13507470591468
20.75,-1.67858699659001,3.02309056130754e-05,-1.05419062838536
20.8125,-1.78059397710066,0.0017004263428642,-0.877612507346259
20.875,-1.57218265644284,0.0025131639162973,-0.604700999355549
20.9375,-1.10921660843764,0.00253271954596607,-0.285524889148848
21,-0.507255972505881,0.00190849979635839,-0.0113912055961361
21.0625,0.0812321688437948,0.000839460495303677,0.115149995340616
21.125,0.500921730354884,-0.000342848670828829,0.0210807226708459
21.1875,0.630622291161386,-0.00109712730288685,-0.300370229559261
21.25,0.413595897175575,-0.000874552982338004,-0.771753568494453
21.3125,-0.126918239754067,0.000286458311907176,-1.24123987245086
21.375,-0.891172164228775,0.00189029632524866,-1.52008353637957
21.4375,-1.72443945443246,0.00356219862428288,-1.43777255338531
21.5,-2.45091062654926,0.0050190966078611,-0.898128230730861
21.5625,-2.91128146950242,0.00576216494687551,0.0817598899641365
21.625,-2.99495783136398,0.00466817903711168,1.36321733151272
21.6875,-2.65991789349297,0.000388529460427639,2.71249710458721
21.75,-1.93709153033549,-0.00494793192632364,3.85555180864852
21.8125,-0.920218852930383,-0.00789146552346578,4.54574369131406
21.875,0.254567245881078,-0.0084988361732546,4.62527714075905
21.9375,1.43350693296157,-0.00717287590381705,4.06327966025057
22,2.46893601451342,-0.00388164420582455,2.96077855486293
22.0625,3.23827257657209,0.00173226752530078,1.52276588101675
22.125,3.65678759162559,0.010026167676988,0.00685561374249177
22.1875,3.6845596211243,0.0135637650961509,-1.33615946217362
22.25,3.32848247529651,0.00502893971398967,-2.31379857639411
22.3125,2.6404442022128,-0.000974629863361407,-2.8234624984971
22.375,1.71248139709063,-0.00512175739272462,-2.85920330345961
22.4375,0.667286066921755,-0.00896864908219482,-2.49630653056749
22.5,-0.355704478765409,-0.0112955116586538,-1.86181699326107
22.5625,-1.21832905499191,-0.0100533546000082,-1.10118944953627
22.625,-1.80395908507788,-0.00333321381111648,-0.349798828099819
22.6875,-2.03655325501842,0.00541945639115843,0.28573153197332
22.75,-1.89439320228582,0.0076915880115093,0.735725417347808
22.8125,-1.41476414193859,0.00647201444405092,0.967666393294648
22.875,-0.687663906576494,0.00425442205953954,0.982031368146972
22.9375,0.160536189945632,0.000879475594285383,0.806503660613352
23,0.990084093145758,-0.00317542050210165,0.48953608398622
23.0625,1.67231387086706,-0.00658933039497988,0.0927190009733789
23.125,2.11014980468678,-0.00634441673330436,-0.31891550586843
23.1875,2.25058658442988,-0.00129526374776021,-0.688447862457043
23.25,2.0875409088972,0.00249727136235824,-0.978433776002482
23.3125,1.65594337760083,0.00376797633044301,-1.17855087895713
23.375,1.02032158237935,0.00373059159650669,-1.30595901084943
23.4375,0.261692614659415,0.00266968711822625,-1.39660081849773
23.5,-0.534161691154372,0.000682040289630637,-1.4888894391821
23.5625,-1.28544006561776,-0.0017738512038895,-1.60463141676843
23.625,-1.92028092952182,-0.00305775837635603,-1.73408467126528
23.6875,-2.38125566862064,-0.00201387081089318,-1.8316427761921
23.75,-2.62983742584821,0.000102584924264343,-1.82553154129741
23.8125,-2.65132203838677,0.00234861259013809,-1.63997884215217
23.875,-2.45907635572961,0.0043264417963442,-1.2233360185126
23.9375,-2.09589283550368,0.00540527075630419,-0.5725659289191
24,-1.63004709442106,0.00500614703501723,0.255240833428763
24.0625,-1.14476434298372,0.00318458054488263,1.1498876092557
24.125,-0.721986160159121,0.000784119621425407,1.97303344483131
24.1875,-0.423783018251621,-0.00123036240514163,2.59407703533306
24.25,-0.276472355913205,-0.00237034922954628,2.92564802486356
24.3125,-0.262631426454299,-0.00256610338046799,2.94693648479825
24.375,-0.324455165730471,-0.00204639544062139,2.70684307557404
24.4375,-0.378707652326635,-0.00129464102306441,2.30569533492538
24.5,-0.339839917465964,-0.000925165996331414,1.86168017944117
24.5625,-0.144966676974197,-0.00123522166234145,1.47350269973545
24.625,0.226620665608325,-0.00195579721469594,1.1920899164163
24.6875,0.745404011576458,-0.00270723297333792,1.01085443976378
24.75,1.33771251828822,-0.00321288541102388,0.877258205816546
24.8125,1.90428915161565,-0.00312645930615563,0.720627635517008
24.875,2.34588098951549,-0.00199474892677693,0.485241603017173
24.9375,2.58827802336662,0.000401447825540949,0.155863609231417
25,2.59955454314627,0.00321738460855649,-0.234152049614931
25.0625,2.39488271527906,0.00483343364087614,-0.615345520392187
25.125,2.02830619825257,0.00467506210797205,-0.910427641216735
25.1875,1.57494072288305,0.00300763998295109,-1.06730972468646
25.25,1.10972517175922,0.000200977804186097,-1.08371913329053
25.3125,0.689359879755622,-0.00308816503989314,-1.01308633146967
25.375,0.342406217391845,-0.00579047302588538,-0.948243380139741
25.4375,0.0693350756531478,-0.00664529745303413,-0.987830231654806
25.5,-0.149157947504212,-0.00501698454075431,-1.1970749613343
25.5625,-0.339780667215034,-0.00152438318203607,-1.57725589153286
25.625,-0.525164794117201,0.0027334547267848,-2.05561060262468
25.6875,-0.717049457186372,0.00682673224835874,-2.50056663115907
25.75,-0.915492978136953,0.00979214915927885,-2.75837148372031
25.8125,-1.11284345672131,0.0105962641611638,-2.69964152983211
25.875,-1.29937567201317,0.00871185390725713,-2.26073134777206
25.9375,-1.46720218353334,0.0047490405527051,-1.46642364223264
26,-1.61033596326317,2.50710571204677e-05,-0.426663608192043
26.0625,-1.7210156552218,-0.00438270618199304,0.691322675953299
26.125,-1.78456457710772,-0.00779300328500686,1.70622811298737
26.1875,-1.77618908185729,-0.00963126555272302,2.46732976396646
26.25,-1.66271927229632,-0.00939495706103307,2.88706895883761
26.3125,-1.41043532049249,-0.00727589116769881,2.95283526702094
26.375,-0.997510072092554,-0.00453459429280343,2.71670934378918
26.4375,-0.427257595592525,-0.00226143441759198,2.26924954958761
26.5,0.262711044826832,-0.000769810526013359,1.70802122459688
26.5625,0.999595590802138,-2.73582608193027e-05,1.11201207902583
26.625,1.68461027081536,0.00036126501598132,0.529510834095721
26.6875,2.21092856349074,0.00112804851252728,-0.018927821173917
26.75,2.48606584367815,0.00316149510162062,-0.526755893165141
26.8125,2.45276595671672,0.00627526173721263,-0.984954068129761
26.875,2.10270029900933,0.00842953014625435,-1.37098285986333
26.9375,1.47930327879798,0.00875497647765106,-1.64818856632842
27,0.66928698590867,0.00768146916814586,-1.77569382515755
27.0625,-0.21448748830665,0.00541562951490316,-1.72408214557876
27.125,-1.0540057820024,0.00188450732770752,-1.48966040177813
27.1875,-1.74565556766506,-0.00291147975175672,-1.10070262518192
27.25,-2.21419149254072,-0.00811369279561392,-0.612488897619384
27.3125,-2.41919946250074,-0.0111885963376934,-0.0926788591011534
27.375,-2.35454390596373,-0.0106631743518415,0.397389361500026
27.4375,-2.04311333215918,-0.00786937517552514,0.818168611786443
27.5,-1.52972160749607,-0.00391059918074012,1.15814392290518
27.5625,-0.874223637644409,0.000767487165901951,1.42862808759256
27.625,-0.145650838386265,0.00555681557028484,1.64957882632327
27.6875,0.583117263761924,0.009420105522451,1.83258559887249
27.75,1.24125595301841,0.0110586182319743,1.96835171257516
27.8125,1.76720849943532,0.00975781162212899,2.02419825050799
27.875,2.11680809556449,0.00623333738943008,1.95306826006138
27.9375,2.2705856077141,0.00176793950272715,1.71084152314333
28,2.23771441310559,-0.00272276778056715,1.27536087207134
28.0625,2.05432798670129,-0.00659104211922884,0.659780589693764
28.125,1.77538014432531,-0.00921772500126653,-0.0850228194721819
28.1875,1.46132788751695,-0.0100550820287417,-0.88005973346115
28.25,1.16293645678528,-0.0089115836051964,-1.63639651353984
28.3125,0.9085979332495,-0.00612464972008895,-2.27532807037866
28.375,0.698180592252798,-0.00232218003741062,-2.74355531064126
28.4375,0.505585946844452,0.00187698924543289,-3.01869740024604
28.5,0.289441714600172,0.00584496419714255,-3.10455264111312
28.5625,0.00865702166860438,0.00880248228484396,-3.01964066267865
28.625,-0.362094011782739,0.00996479997568571,-2.78499805981273
28.6875,-0.821877951659464,0.00903811861656833,-2.41696013007383
28.75,-1.34119988997616,0.00643148646051197,-1.92788190567866
28.8125,-1.86830273293903,0.00286023777689236,-1.33366229189228
28.875,-2.34160934570184,-0.0010351372027666,-0.663348782135655
28.9375,-2.70393319849522,-0.00472797478145418,0.0353478018486626
29,-2.91381903247674,-0.00763632096045323,0.699353851792268
29.0625,-2.95081962961826,-0.00905625301955083,1.26321321658051
29.125,-2.81406653915305,-0.0086383594156303,1.67790309816535
29.1875,-2.51613484941231,-0.00689839049823225,1.92813216958201
29.25,-2.07586954230824,-0.00458320700224697,2.04013327855574
29.3125,-1.51386475081107,-0.00213531175490666,2.07478190498146
29.375,-0.852711176565121,0.000216689604388,2.106306636196
29.4375,-0.12157643305706,0.00239715004225094,2.19290677145373
29.5,0.637772466160114,0.00440901771971841,2.34981457782135
29.5625,1.36766970942137,0.00619011542020359,2.53581443897621
29.625,1.99761402882567,0.00741929815111048,2.66038224686021
29.6875,2.45507292985999,0.0077219138786485,2.61152035278226
29.75,2.68219991361233,0.0070578617818241,2.29646891273253
29.8125,2.65371067973772,0.00555991822789391,1.68172202676319
29.875,2.38969416526655,0.00329242509246227,0.817530496816008
29.9375,1.95785385781125,0.000369452453059445,-0.163829897582372
30,1.46252883845043,-0.00283754549419043,-1.07839741011059
30.0625,1.02195859490667,-0.00572175965162497,-1.74196645450046
30.125,0.739255450926073,-0.00769476452140948,-2.02715935332581
30.1875,0.675035237264902,-0.00841332834317403,-1.9075294889708
30.25,0.829706750747346,-0.0077934876147253,-1.4731731232574
30.3125,1.14092219121135,-0.00591770259382866,-0.910831388374268
30.375,1.49739436733717,-0.00301226095067718,-0.452706421300917
30.4375,1.76555844593613,0.00048737756221701,-0.308483903175268
30.5,1.82191117589837,0.00390676926882532,-0.600888056823709
30.5625,1.58243697864706,0.00646955391654404,-1.32448718455075
30.625,1.02170802583573,0.00756985938081142,-2.34056364584043
30.6875,0.177535344803548,0.00697507269089196,-3.40990953134393
30.75,-0.858708758900652,0.00484363116690626,-4.25397878596055
30.8125,-1.96217080118131,0.00164152262909115,-4.62658524046749
30.875,-2.99884381517889,-0.00195608690556808,-4.37581052299518
30.9375,-3.84786512947999,-0.00515570398586962,-3.47954809747246
31,-4.41726401904255,-0.00711178237792,-2.04665999481858
31.0625,-4.65143166841431,-0.00707875478645754,-0.286087657674563
31.125,-4.53131678120493,-0.00492544585694384,1.54493495339403
31.1875,-4.07008982005884,-0.00162683671061564,3.19778702129901
31.25,-3.30730540802936,0.00143908338065322,4.47928931509715
31.3125,-2.30359321917594,0.00353247772030089,5.27829027777345
31.375,-1.13633307699785,0.0044436992567386,5.56917311999876
31.4375,0.104594139661948,0.00413326271646251,5.39641457731025
31.5,1.322428761619,0.00274151112396791,4.84874146812159
31.5625,2.42144959899251,0.000687154022377023,4.03228328335299
31.625,3.31681695954194,-0.00129136522809154,3.04979268836697
31.6875,3.94457761571884,-0.00230295830856869,1.98896250966376
31.75,4.2692737308824,-0.00190958154040259,0.91894862242622
31.8125,4.28684606368502,-0.000571489920583359,-0.108131403755723
31.875,4.02179832366441,0.000897992088157554,-1.05416917317375
31.9375,3.51943433138365,0.00195495875345973,-1.89250580641415
32,2.83564303691189,0.00234185844180708,-2.60587561200396
32.0625,2.02747415148534,0.00199344261965288,-3.18362173398137
32.125,1.14727759017246,0.00103999410855565,-3.61710344157867
32.1875,0.24162279078303,-0.000206196681619958,-3.8936668832987
32.25,-0.645830863121335,-0.00134936175590433,-3.9914360919722
32.3125,-1.47004652261273,-0.0020632579976106,-3.87831069925067
32.375,-2.18208863029448,-0.0022029538552252,-3.51801663895447
32.4375,-2.73083825910475,-0.00180861433089346,-2.88369172369547
32.5,-3.06958323133589,-0.0010367791840354,-1.9760610683273
32.5625,-3.16588368037753,-9.03325710863022e-05,-0.84018651158229
32.625,-3.01137764357566,0.000828365792961144,0.426445612964642
32.6875,-2.62769534261951,0.00154970676934442,1.68019700224999
32.75,-2.06566388131447,0.00195757198120476,2.75346513646967
32.8125,-1.39718194427319,0.00199803240063923,3.48885184531237
32.875,-0.701718663034289,0.00168430722662792,3.776508217388
32.9375,-0.0513557776258329,0.00109758655417517,3.58353868768432
33,0.50113185933914,0.000361612211928098,2.96572794779022
33.0625,0.927734623656038,-0.000409775379868678,2.05675434326594
33.125,1.22312643937299,-0.00114187030906203,1.03696383619029
33.1875,1.39670021228286,-0.00176574551442316,0.0903510427432515
33.25,1.4624553831256,-0.00216132871405845,-0.637714926029046
33.3125,1.4310789439435,-0.00216946919997881,-1.06973003689079
33.375,1.30744333557176,-0.00170248110014341,-1.20435423421752
33.4375,1.09432216255736,-0.000832500855151646,-1.1028774474979
33.5,0.800341796651637,0.000252218078672973,-0.860122508284059
33.5625,0.448154388025283,0.00133474956593991,-0.570812905092197
33.625,0.0783793246259338,0.00220130113781226,-0.303114970631045
33.6875,-0.253742064898671,0.00265348506891792,-0.0875075574272056
33.75,-0.489268812401158,0.00255226603959713,0.0772462197923574
33.8125,-0.581239939509262,0.00188741170484239,0.205987017639812
33.875,-0.510033993367168,0.000817783436818918,0.30638451886057
33.9375,-0.292842028983408,-0.000378728373217423,0.365562302143275
34,0.0167542493799589,-0.00141640778118855,0.350655805136266
34.0625,0.33998527705344,-0.00207677349873603,0.223614131132444
34.125,0.592158159986097,-0.00222950922120436,-0.0358763739451112
34.1875,0.704460011408684,-0.00184870049696933,-0.409519325870515
34.25,0.641791463814682,-0.0010443315196861,-0.831733047629863
34.3125,0.411325886456019,-7.3077894112035e-05,-1.19909512181405
34.375,0.05946941289508,0.0007306263972742,-1.39693019394003
34.4375,-0.341398001478389,0.00109436146333042,-1.33510350753884
34.5,-0.711889618105003,0.000925274848141827,-0.980773592752713
34.5625,-0.984292783059921,0.000344684958546699,-0.375975459261442
34.625,-1.11558767760019,-0.000366332910814303,0.367412647043759
34.6875,-1.09183074759827,-0.000882904012023114,1.09510899128882
34.75,-0.924162120739572,-0.0009623366452882,1.65217947732576
34.8125,-0.639535562428653,-0.000541191850790985,1.92578319437017
34.875,-0.270688695094592,0.000265178110383712,1.87499567889666
34.9375,0.150580679168519,0.00125719519173579,1.53810203021743
35,0.594805393099976,0.00219939901117383,1.01546058603969
35.0625,1.03161436124265,0.00280216549438863,0.434388066062196
35.125,1.42487223109535,0.00275497676409818,-0.0914852803091825
35.1875,1.73010227323058,0.00186122280190357,-0.494425270712353
35.25,1.89724895755916,0.000225952716282202,-0.765852830264028
35.3125,1.87955307468711,-0.00169595940912256,-0.947234090416998
35.375,1.64650411438445,-0.00337922284583854,-1.10330037008817
35.4375,1.19663252919871,-0.00445604519677436,-1.28847824548863
35.5,0.565233622722501,-0.0046842553678468,-1.51946240751446
35.5625,-0.176688898971966,-0.00393175562328447,-1.76414805331138
35.625,-0.933282650574588,-0.0022503030246189,-1.95077267683945
35.6875,-1.60228889330091,3.50076516689598e-05,-1.99352552715626
35.75,-2.09621532820412,0.00230818605259589,-1.82487834969176
35.8125,-2.36032291132348,0.00388931065410703,-1.42262517641433
35.875,-2.38240091249079,0.00441954115393431,-0.821806940035367
35.9375,-2.1918401912993,0.00394431426294084,-0.107395173237962
36,-1.8488029367683,0.00271019333350874,0.609383843383366
36.0625,-1.42718442523673,0.00103378288284434,1.22249375945635
36.125,-0.9966107088728,-0.000710376694693161,1.65933029800135
36.1875,-0.608476628068042,-0.00210757259748632,1.89646072125739
36.25,-0.289212292452741,-0.00280150394456839,1.95848205428198
36.3125,-0.0413281431985227,-0.00263736675584033,1.90182711332665
36.375,0.149680654663835,-0.00171952042140625,1.79049816202925
36.4375,0.30594625834114,-0.000339356852477635,1.67297549265144
36.5,0.448783935819916,0.0011257836518514,1.56828379281582
36.5625,0.593440629016534,0.00228285549034657,1.465116292672
36.625,0.747507491600372,0.00280514819043706,1.33274633703133
36.6875,0.911891265654453,0.00254363588101324,1.13822797008486
36.75,1.08249961285109,0.00158439873444556,0.862631601727379
36.8125,1.25110887235992,0.000181730510086335,0.510244647737915
36.875,1.4049797016027,-0.00135696102240556,0.108074843793457
36.9375,1.52605263374898,-0.00272228337235646,-0.302916792068543
37,1.59131711805062,-0.00360227636696683,-0.68035726515816
37.0625,1.5757729043597,-0.00373145543026388,-0.991392987005462
37.125,1.45830268404714,-0.00302873792157555,-1.21809349324317
37.1875,1.22921045305177,-0.00168819446330995,-1.35639705528014
37.25,0.896872647277577,-7.79486191585755e-05,-1.41073608106964
37.3125,0.490570255975691,0.00143675373606984,-1.38822863715958
37.375,0.0574345023763319,0.00257645948266282,-1.29600156948654
37.4375,-0.346656893066426,0.00315736122309805,-1.14304343527437
37.5,-0.670119572753065,0.00310184293655129,-0.945060276989007
37.5625,-0.878768614723535,0.00246851534808238,-0.728590159075036
37.625,-0.964645665301981,0.00146670528507515,-0.530304419550855
37.6875,-0.947337260906379,0.0003963472445018,-0.389326316719653
37.75,-0.866962550274618,-0.000475367149781455,-0.333830956987634
37.8125,-0.770884518995864,-0.00100149869768793,-0.366663112336671
37.875,-0.698484750348477,-0.00116277549995637,-0.456553900201234
37.9375,-0.669150786377902,-0.0010335195597873,-0.540618896890983
38,-0.67759135671083,-0.000742414771283488,-0.540159889910984
38.0625,-0.698034195001855,-0.000440321124005619,-0.386559187922094
38.125,-0.695678284634713,-0.000267419720948152,-0.0492563521860804
38.1875,-0.641134890091869,-0.000302681837690053,0.444506358146849
38.25,-0.522493820342063,-0.000510063116687895,1.00702258727411
38.3125,-0.35053188233057,-0.000737856108148466,1.50828378533226
38.375,-0.155142738315139,-0.000797317946968487,1.81150871332463
38.4375,0.0256257211100008,-0.00056864438864764,1.8158423691645
38.5,0.159724307197768,-5.63124033796537e-05,1.49232272616743
38.5625,0.232989330517401,0.000629613250207066,0.900198163511181
38.625,0.254112305491113,0.00131659349931359,0.176371022693304
38.6875,0.25063351215706,0.00180137043604573,-0.50057732661757
38.75,0.257325741775863,0.00189589539516007,-0.961579681083863
38.8125,0.301309388162833,0.00150378778521469,-1.09759214828757
38.875,0.389627681921871,0.000682488787427391,-0.893019479257144
38.9375,0.504253197040877,-0.000372658691026668,-0.430754775918104
39,0.606833381891521,-0.0014106615557832,0.133358950933443
39.0625,0.651873006830207,-0.00219247145761404,0.618767177783562
39.125,0.603824076153754,-0.00252142719195895,0.875692427363074
39.1875,0.451915542420108,-0.00228133199989829,0.829994816817616
39.25,0.217142150428981,-0.00149019012327327,0.503116805854097
39.3125,-0.0515300648091636,-0.000330001485904256,0.00121319209773912
39.375,-0.29092156509659,0.000891039682227319,-0.522140013607598
39.4375,-0.442996880335959,0.00184844378281423,-0.916614801148373
39.5,-0.473404484324594,0.00231985844207276,-1.08207389830465
39.5625,-0.382953100894953,0.00224080500021375,-0.996517926989312
39.625,-0.208113272091999,0.0016939901509898,-0.716732760933141
39.6875,-0.010299835529525,0.000863800971615835,-0.352887499029096
39.75,0.142599743001883,-2.36466865538064e-05,-0.0270980351964965
39.8125,0.196513480348937,-0.000762942121996765,0.169060382346639
39.875,0.126928478394204,-0.00122100342593323,0.203515609369734
39.9375,-0.0545738150677266,-0.00135996894812403,0.109981018224515
40,-0.30450752447022,-0.00121985156459637,-0.0292728709713491
40.0625,-0.560460671290643,-0.000878887486318978,-0.116804455118652
40.125,-0.758351869733171,-0.000426498144158957,-0.0770053409285921
40.1875,-0.848566879734974,3.9082152163208e-05,0.11634621916668
40.25,-0.806528815452449,0.000411743601245644,0.431000031356896
40.3125,-0.635543567537832,0.00060672941725473,0.787697482437158
40.375,-0.362450229416224,0.000606134907235494,1.08706505736706
40.4375,-0.0287074109064232,0.000466824668909259,1.24190698274966
40.5,0.319607396467954,0.00027455265247631,1.20380337474807
40.5625,0.639939946771988,9.1737092561807e-05,0.975777528285846
40.625,0.89808617048092,-5.90464393106629e-05,0.608229646460997
40.6875,1.06994188618466,-0.000175899990859932,0.181182337189146
40.75,1.14156547524892,-0.000255210586641992,-0.219973516380732
40.8125,1.10911933873809,-0.000294162884071907,-0.526896919756381
40.875,0.979499315038269,-0.000299103483606111,-0.702442994929913
40.9375,0.771250140953171,-0.000274326861895997,-0.74394959623042
41,0.514380384138878,-0.000216811556485345,-0.677159505548864
41.0625,0.247501789785493,-0.000133526908974022,-0.54499489805561
41.125,0.0115220544027948,-5.30612515326127e-05,-0.395913974390632
41.1875,-0.159362041558296,-9.72697085965102e-06,-0.275064748832837
41.25,-0.247042207230567,-1.28862923217282e-05,-0.218945928808588
41.3125,-0.256021525449871,-3.13732836189291e-05,-0.252160970628302
41.375,-0.214169739424355,-8.96866327673422e-06,-0.384170642685836
41.4375,-0.166371849089162,0.000100213361677986,-0.604983271796211
41.5,-0.162089017455621,0.000300310588647001,-0.880838158268444
41.5625,-0.240145981917323,0.0005454460981459,-1.15290147383005
41.625,-0.415393936493498,0.000761016667370028,-1.34255132596929
41.6875,-0.671680929462125,0.000879399771721998,-1.36531926993675
41.75,-0.963759719941363,0.000859251667868568,-1.15228330794676
41.8125,-1.22794181143347,0.000682011603939709,-0.673895079042968
41.875,-1.39843968814415,0.000355214010769102,0.0414492264442536
41.9375,-1.42445228188022,-7.52484529902022e-05,0.901884836787318
42,-1.28283245217355,-0.000535864426043294,1.76438572856312
42.0625,-0.982718355555264,-0.000958374254446156,2.46427069866436
42.125,-0.561256229294154,-0.00128683988666173,2.85521365886265
42.1875,-0.0724920691886946,-0.00143793684172202,2.84858472337724
42.25,0.426401847553688,-0.00131245591155719,2.43990059115557
42.3125,0.886903182389793,-0.000888245986453128,1.71326172476825
42.375,1.27547503417758,-0.000256092601595374,0.821126747674308
42.4375,1.57342560341829,0.000431273195569885,-0.0554445952883661
42.5,1.77188208981792,0.00103275568508968,-0.754517904725461
42.5625,1.86527621956727,0.00142554931122405,-1.17463024699732
42.625,1.84703420702418,0.00143907795073702,-1.2973324765475
42.6875,1.70986449732554,0.000952079559158345,-1.18456834633098
42.75,1.45070804543978,6.31694364613576e-05,-0.95268002061517
42.8125,1.07803507259788,-0.000979541038223372,-0.73225597600194
42.875,0.6177442273488,-0.00189689470911698,-0.627191770944653
42.9375,0.1140907118628,-0.00242186419483996,-0.68585054914296
43,-0.376164813803558,-0.00233910127147676,-0.892393816334194
43.0625,-0.795492720532023,-0.00158271824939518,-1.17905360865108
43.125,-1.09974534331656,-0.000347937162909655,-1.45302864634462
43.1875,-1.26985585271453,0.00100120767273769,-1.62733670595258
43.25,-1.31663492934446,0.00215454090421057,-1.64476917141527
43.3125,-1.27639627465874,0.00292074378215277,-1.48789076786648
43.375,-1.19834585871956,0.00318731439137587,-1.17412890652407
43.4375,-1.1277184104223,0.00292317925885329,-0.74090527924662
43.5,-1.09037914804708,0.00222115083490974,-0.229147959951764
43.5625,-1.08432578427063,0.00128274416171709,0.32686611695981
43.625,-1.08125399604755,0.000307937131964624,0.899244477040078
43.6875,-1.03785815068662,-0.000585727009249006,1.45729127407102
43.75,-0.913067607454126,-0.0013445205835635,1.95579190008969
43.8125,-0.685228571506229,-0.00194461091601201,2.32917057399945
43.875,-0.363145439345332,-0.00239332761502106,2.49803015028113
43.9375,0.013046959065486,-0.0027106629327812,2.38938507554696
44,0.381717361553799,-0.0028532701219328,1.96540248857649
44.0625,0.677128112466962,-0.00271693736744664,1.25034103398303
44.125,0.848651458833459,-0.00223165209606694,0.34390487486327
44.1875,0.875510112346955,-0.00137296851781712,-0.587616217049684
44.25,0.772347650628253,-0.000127945043333169,-1.34405775792664
44.3125,0.584108561617057,0.00145839880777734,-1.74108069595043
44.375,0.372292866799799,0.00309933263272141,-1.66305441137345
44.4375,0.197376300818288,0.00420528290788535,-1.10259463855954
44.5,0.103134419864258,0.00433291904457505,-0.17300327096025
44.5625,0.107540240491672,0.0035019760388506,0.912511844618261
44.625,0.202299770599312,0.00198075727114496,1.89085820380331
44.6875,0.359968470202028,5.51853660830074e-05,2.51509445665982
44.75,0.545126840971614,-0.00191355108982791,2.61796235832035
44.8125,0.725137518365385,-0.003325982131343,2.15485454763272
44.875,0.876800472096542,-0.00361259651490305,1.21423057062844
44.9375,0.987327382343969,-0.00269805854605417,-0.00681950370359422
45,1.05057184325082,-0.000898974394708171,-1.25402287517082
45.0625,1.06137950615653,0.0013047328667206,-2.27916518219863
45.125,1.01150063372523,0.00329642343359047,-2.89748343426533
45.1875,0.889568395660387,0.00427781433980559,-3.02455844369756
45.25,0.685636495840078,0.00354760853013754,-2.68512699906101
45.3125,0.39855139187213,0.00132711753512843,-1.99483892259892
45.375,0.0429366555354245,-0.00152821866265624,-1.12328960973191
45.4375,-0.347643711744214,-0.00438744750754207,-0.250532805746146
45.5,-0.723549716609591,-0.00667979686519394,0.47103578417093
45.5625,-1.02796848288271,-0.00762144119239305,0.94130309294629
45.625,-1.20960967239655,-0.00637870301416839,1.12088177375288
45.6875,-1.23546607405538,-0.00294066461738008,1.02568712818933
45.75,-1.09977063294427,0.000998913809873799,0.712952389053506
45.8125,-0.826489594151522,0.00387032786960524,0.264394024796293
45.875,-0.464737802969329,0.00545738268963516,-0.229401308785359
45.9375,-0.0787134353115024,0.00583209796646051,-0.681741167493335
46,0.264780993040876,0.00497973177621176,-1.02002631564311
46.0625,0.507912872746833,0.00302147323989103,-1.19421645375838
46.125,0.610050465508867,0.000744678552834801,-1.18359904784674
46.1875,0.551774809944198,-0.000548377513576229,-1.00051442896414
46.25,0.335317462113986,-0.00055947013500641,-0.688810740938134
46.3125,-0.0170912606250856,0.000217243594048924,-0.315282388983923
46.375,-0.465585966863519,0.00157897932557606,0.0456656150098881
46.4375,-0.955268098007456,0.00325577391013265,0.331079907891209
46.5,-1.41971775605415,0.00444958306737808,0.506839299524455
46.5625,-1.786762597764,0.00379611851460831,0.577294472519067
46.625,-1.98757518890075,0.000480195000677971,0.582839839701043
46.6875,-1.96889830099863,-0.00374967009852606,0.584915966080493
46.75,-1.70631855631342,-0.00687964523562419,0.642594660402916
46.8125,-1.21494228042225,-0.00862118682760661,0.788569828487514
46.875,-0.553357192915185,-0.00893212046096447,1.01345731292405
46.9375,0.182263025878613,-0.00744729246374965,1.26505713042467
47,0.874529887164121,-0.00386190966200517,1.46417710470222
47.0625,1.40900008845672,0.00128197466711562,1.53246201585977
47.125,1.7004806442615,0.00600466051993518,1.42270314926697
47.1875,1.71432437562577,0.00837580494451799,1.14034296233894
47.25,1.47628215340787,0.00818561064673802,0.747273692448827
47.3125,1.06736020215778,0.00599462273758218,0.344966108987504
47.375,0.604273331343593,0.00236876398611163,0.0414643636505911
47.4375,0.210374395530612,-0.00194588312028793,-0.0868751582586595
47.5,-0.0150885817374777,-0.00578372165162193,-0.0252844099599972
47.5625,-0.0209423375311667,-0.00767559087522117,0.169389966418534
47.625,0.185167554222038,-0.00677809313974479,0.383598362169459
47.6875,0.541733980686606,-0.00350361206982165,0.483337815674762
47.75,0.951896848728651,0.00125946124390758,0.360312400147427
47.8125,1.30958678408263,0.00663728162578344,-0.0275399074503228
47.875,1.52557337943414,0.0114160761530992,-0.635476634884377
47.9375,1.54637359617345,0.0137295895974694,-1.33934451545933
48,1.36181107905466,0.0116203001857588,-1.96962097323454
48.0625,1.00090846800526,0.00537437298277226,-2.36166477169015
48.125,0.519392777209063,-0.00203814483216532,-2.40603004526666
48.1875,-0.0159644338555298,-0.00850237405661966,-2.08244811383685
48.25,-0.541030236596006,-0.0132646383653123,-1.46641993402402
48.3125,-1.00259411887589,-0.0155848216736922,-0.706457735861522
48.375,-1.36066743175866,-0.0143909769846769,0.0202934332259308
48.4375,-1.58681496674928,-0.00905559374633441,0.559376026595596
48.5,-1.66186249290543,-0.00156994975662405,0.820755627185591
48.5625,-1.5759455652191,0.00398405428421687,0.798232531548118
48.625,-1.33197678665187,0.00632587137619842,0.561749915035668
48.6875,-0.951251736991511,0.00609152953460616,0.227063960031366
48.75,-0.478063998366854,0.00377694333851202,-0.0854904012766143
48.8125,0.0203948780781551,0.000235266946128424,-0.288548737042593
48.875,0.461370094943054,-0.00293437377414985,-0.349350220737038
48.9375,0.761096515493958,-0.00355194775252827,-0.289720721555124
49,0.853643621291684,-0.000758832618831851,-0.166771177855341
49.0625,0.708956201241176,0.0037328419231473,-0.043381392232657
49.125,0.344404019171184,0.00822369061137599,0.0394798888362518
49.1875,-0.174430565241039,0.0119445788631582,0.0781642880308534
49.25,-0.7449882064919,0.0139473946165275,0.104421703732069
49.3125,-1.24873441473825,0.0127677411845468,0.168026176414712
49.375,-1.57673555544151,0.00717407850138402,0.311671817999649
49.4375,-1.65325733474643,-0.00175363843902866,0.548476830869502
49.5,-1.45146667160334,-0.00995443829639527,0.851015997354894
49.5625,-0.997621765807881,-0.0146667502243515,1.15608933251356
49.625,-0.363555134232789,-0.0157108066296282,1.38335230787508
49.6875,0.34963536154483,-0.0133685618584267,1.46083966642449
49.75,1.03201916706162,-0.00791172710599514,1.34815917987788
49.8125,1.5843908864133,-9.1533551993931e-05,1.04939631220364
49.875,1.93312729155268,0.0078205450331581,0.611878482743716
49.9375,2.03852559325272,0.0119894976979974,0.112166231050079
50,1.89679662032715,0.0107843148382777,-0.365071926144503
50.0625,1.53735125201228,0.00594877277481866,-0.747821294308122
50.125,1.01720006766341,-0.000707016736644212,-0.990753096386033
50.1875,0.413515125999456,-0.00777245518134821,-1.07950194014823
50.25,-0.185318485286122,-0.0134506371721808,-1.02619600652726
50.3125,-0.690361970205192,-0.0155957790409234,-0.860262055229908
50.375,-1.02450607136454,-0.0126208227204217,-0.619373036264605
50.4375,-1.13562006667282,-0.00535398983377902,-0.343945342699623
50.5,-1.00824002323674,0.00314718122059578,-0.075710727562261
50.5625,-0.670551369067173,0.0105159598969389,0.141941129430299
50.625,-0.19349473087781,0.0157111615561677,0.265514250855958
50.6875,0.319656842622049,0.0179959274425117,0.257683914186922
50.75,0.752473497600083,0.0166016776911912,0.0984176843188055
50.8125,0.999793723827188,0.0113170269361317,-0.202312898005885
50.875,0.991796981242827,0.0036160243436493,-0.595876891576315
50.9375,0.711515533778748,-0.00355918739592098,-0.996126236530193
51,0.200819463160298,-0.00815321953886108,-1.29347034543658
51.0625,-0.447177874684313,-0.00975665558475936,-1.38045949205698
51.125,-1.10764409401297,-0.00866733011121729,-1.1826182466715
51.1875,-1.65060949703397,-0.00549757763237048,-0.685116584021793
51.25,-1.96792922555035,-0.00129327486878954,0.0541398610077934
51.3125,-1.99412953639699,0.00196870436403371,0.910932510216228
51.375,-1.71671541398552,0.00207197334634757,1.72062746342663
51.4375,-1.17473153758672,-0.000729039092834342,2.31708845803225
51.5,-0.447599880898477,-0.00451697826188412,2.57357806384813
51.5625,0.36158657374974,-0.00821064941232631,2.43362579763414
51.625,1.14356542783208,-0.0110512329910818,1.92289502190558
51.6875,1.79751553936578,-0.0117594688168923,1.13917544928443
51.75,2.24117036267497,-0.00849613611889586,0.224618741800479
51.8125,2.41691898096208,-0.000239992579772524,-0.670267197921036
51.875,2.29565074310244,0.00927625601180978,-1.41943325889631
51.9375,1.87989755247595,0.0146796624670878,-1.94162878250981
52,1.20656273990734,0.0156705386873062,-2.20427483083634
52.0625,0.348188522970126,0.0133497436204695,-2.21321375918736
52.125,-0.589828656616759,0.00815303985527163,-1.9955895266034
52.1875,-1.478675695469,0.000558597619138741,-1.58476416644103
52.25,-2.18317853478772,-0.00807577310294952,-1.01401278699714
52.3125,-2.58483820591429,-0.0141502197815671,-0.320756645246951
52.375,-2.60635299581655,-0.0137819638110629,0.442559791781119
52.4375,-2.2314023454751,-0.00860836185839969,1.19874108178218
52.5,-1.51372757996392,-0.0020675560338936,1.84545965628827
52.5625,-0.57131354843823,0.00458840869157391,2.26899099895869
52.625,0.434590557993984,0.0105820856909635,2.37079431868848
52.6875,1.33138853517305,0.0146411943904605,2.09939664561904
52.75,1.97050074406989,0.0150376877383094,1.47615541190571
52.8125,2.25738946066704,0.0105472333225779,0.60378570595234
52.875,2.16876429199054,0.0031591928628194,-0.348694414081811
52.9375,1.75304585959441,-0.00315099582589272,-1.18319730386598
53,1.11470541831533,-0.00714149492159937,-1.72254870461896
53.0625,0.38748969008873,-0.00898039574657651,-1.85846525575159
53.125,-0.295730409584906,-0.00868891335234316,-1.58227711557146
53.1875,-0.828650722982698,-0.00640484419972481,-0.987919494043541
53.25,-1.14707896956078,-0.00289077235473475,-0.245317838109082
53.3125,-1.23229024545736,-8.74918800270671e-05,0.448149258366788
53.375,-1.10397613263882,0.000375369077952343,0.923220645381855
53.4375,-0.807276066077671,-0.000847478646741425,1.08414895373676
53.5,-0.39916999581666,-0.00270510904350709,0.930117154047003
53.5625,0.0616466144655094,-0.00466109408676533,0.546843189248997
53.625,0.519741295004112,-0.00596141814232248,0.0723512206680775
53.6875,0.923790934161446,-0.00546792223782949,-0.350832271018088
53.75,1.22609765984849,-0.0021668290209156,-0.620850983798595
53.8125,1.38383301358153,0.00303909399179854,-0.704475114060156
53.875,1.36376261145433,0.00730632354592566,-0.639718953035129
53.9375,1.14995320588216,0.00940361974287856,-0.513928591592355
54,0.751936896405625,0.00964317676959339,-0.426395573662542
54.0625,0.209678521719353,0.00823142126252068,-0.449304588723229
54.125,-0.407937904827874,0.00508907188518497,-0.600613391710145
54.1875,-1.01247544134956,0.000471135491732332,-0.837609942534288
54.25,-1.51187168838852,-0.00425982984873857,-1.07232433943854
54.3125,-1.82919449138904,-0.00715503975424591,-1.20246359571197
54.375,-1.91922699047289,-0.0075266117074794,-1.14666384942469
54.4375,-1.77830199230515,-0.00589603184391698,-0.872116309817854
54.5,-1.44465159775533,-0.00294156826800675,-0.405968586165003
54.5625,-0.989264826180029,0.000617404382198666,0.172142273167823
54.625,-0.499943295103904,0.00388832250050024,0.752774401951417
54.6875,-0.0629284286959978,0.00590812963993123,1.226484134227
54.75,0.253318700427685,0.00605076186128489,1.51135804269896
54.8125,0.408795246839723,0.00442178113376478,1.57080341122889
54.875,0.395726568133004,0.00166036038329741,1.41815403264844
54.9375,0.236101588281475,-0.00151441849928294,1.10906877736276
55,-0.0249933536602655,-0.00443685384752642,0.725904121121271
55.0625,-0.327887151618584,-0.00645272762115071,0.359335545297882
55.125,-0.606947440289774,-0.0069879960783575,0.0915720524396018
55.1875,-0.798634041800911,-0.0058044570816753,-0.0165488132871016
55.25,-0.849150597679237,-0.00321537426268354,0.0657354539975515
55.3125,-0.722029446298062,7.74283854656057e-05,0.333998058911725
55.375,-0.405379101572688,0.00333594934354017,0.746832443371972
55.4375,0.082500188319258,0.005937937501928,1.22821880464099
55.5,0.691250971366937,0.00738186878243405,1.67572971507844
55.5625,1.34248404152817,0.00732913451775546,1.97591458065602
55.625,1.94074935836245,0.0057167853273583,2.02631186546443
55.6875,2.39049238864652,0.00286928362383022,1.76059327820699
55.75,2.6157482246865,-0.000541361710273094,1.17056329205691
55.8125,2.57766209546419,-0.00375585228405271,0.317573263718943
55.875,2.28467522259833,-0.00618737381745014,-0.67260843740501
55.9375,1.79172296985747,-0.00748593191333335,-1.63324265713143
56,1.18775321693904,-0.0074980623983674,-2.3943613720005
56.0625,0.574396153941811,-0.00625024899304065,-2.82534325272274
56.125,0.0415210643541044,-0.00396097233599494,-2.86990019858386
56.1875,-0.353356453026372,-0.00103128071105652,-2.56203436627516
56.25,-0.595834450357396,0.00202208931286526,-2.01659020240378
56.3125,-0.712537161184014,0.00468708845864407,-1.3957975614025
56.375,-0.757186791555204,0.00657403125726901,-0.861168193830037
56.4375,-0.789580781536717,0.00746012038617533,-0.525468813427732
56.5,-0.85440581558277,0.00725624460146004,-0.420180515893376
56.5625,-0.966696907948916,0.00596864845431845,-0.489339033881027
56.625,-1.1083633854774,0.00371853911220333,-0.612231206344775
56.6875,-1.23638830894086,0.000794319846749666,-0.647847592160749
56.75,-1.29939316227502,-0.00234750801975459,-0.486531177543836
56.8125,-1.25659378667145,-0.00516440773423084,-0.0915607300488638
56.875,-1.09264369836131,-0.00713894811244801,0.483485245907831
56.9375,-0.823583585836824,-0.00787459834686114,1.10778000798159
57,-0.492407123033062,-0.00719274123180962,1.61277068103718
57.0625,-0.156389477421066,-0.0052267372574924,1.8453613378676
57.125,0.1290019067652,-0.00242272340270186,1.71739585021963
57.1875,0.323995668294805,0.0006151099259193,1.23538325234729
57.25,0.411850302660255,0.00332681561741402,0.501073002923146
57.3125,0.398030801882989,0.00529808632085393,-0.316833283804552
57.375,0.302760827100714,0.00626935971457517,-1.03020641566907
57.4375,0.150802086021233,0.00615673253656328,-1.48278650166436
57.5,-0.0370290091680933,0.00510638925018892,-1.58932113741419
57.5625,-0.247276000861614,0.00348225774001507,-1.35145692626409
57.625,-0.471330056236149,0.00173177488545795,-0.847543195181013
57.6875,-0.698863688577843,0.000219186278445712,-0.202143901501363
57.75,-0.910958076744632,-0.000884448688254177,0.452924648562795
57.8125,-1.0769325824584,-0.00163011362727422,1.01272758677978
57.875,-1.15742342020947,-0.00222903802077651,1.41845659081942
57.9375,-1.11365063799956,-0.00291039382527144,1.65817080426924
58,-0.920093520095361,-0.00375065149446243,1.75246976376342
58.0625,-0.576051318571914,-0.00461040571213893,1.73354262888304
58.125,-0.111517267671043,-0.00522983937359797,1.62728852555842
58.1875,0.415490166280687,-0.00532203870037086,1.44551967718754
58.25,0.930122708367098,-0.00459501558396857,1.18999665885905
58.3125,1.35743268176412,-0.00281020466557557,0.864493663232526
58.375,1.63966358349155,4.62404421332488e-05,0.487542791324424
58.4375,1.7488648233204,0.00352651845213889,0.0983511614375991
58.5,1.69114455554957,0.00670231684153183,-0.248408668647747
58.5625,1.50165990020253,0.0086447787998157,-0.498072777581695
58.625,1.23245777226785,0.00890346923075203,-0.615938199951963
58.6875,0.937441105422612,0.00745973380922217,-0.603305774010221
58.75,0.659303378716942,0.00452907746463016,-0.502088345403718
58.8125,0.422148046091062,0.000564096028499619,-0.384529978160714
58.875,0.231200418647882,-0.00363539439445241,-0.330309224664408
58.9375,0.0784372288112001,-0.00699870810500483,-0.398447771970198
59,-0.0489349091914604,-0.00862228082097048,-0.603970416671097
59.0625,-0.160785248208451,-0.00820550275034834,-0.908110074737665
59.125,-0.259911337843831,-0.00602549225247486,-1.22637318165476
59.1875,-0.3423509357145,-0.00267010275440681,-1.45259622483675
59.25,-0.401072082973315,0.00110440939701944,-1.49150051986133
59.3125,-0.430651098391895,0.00442089123538879,-1.28924113982185
59.375,-0.430411904117304,0.00645614274694685,-0.852112686823571
59.4375,-0.404514548450011,0.00676474990843556,-0.247615199510719
59.5,-0.359141364970556,0.00542835066970939,0.412030671632139
59.5625,-0.298473478187254,0.00289325757876318,0.998245829759489
59.625,-0.221868291726334,-0.000225525153061198,1.39731931563702
59.6875,-0.124188270918706,-0.00320786017293083,1.53541351481725
59.75,0.000228457007550475,-0.00528736899490573,1.39121714239255
59.8125,0.151295997743219,-0.0058837769243781,0.994758332085412
59.875,0.317336442158431,-0.00488297935979384,0.415361862739251
59.9375,0.472687320556654,-0.00262147595777342,-0.255590165227424
60,0.580769096202881,0.000347729150836426,-0.921321830738181
60.0625,0.602608794504452,0.00338099161863296,-1.4920850685635
60.125,0.50856373083019,0.00574979313212204,-1.89276307869163
60.1875,0.289411276926628,0.00673910842416896,-2.06760082324026
60.25,-0.0372462035104869,0.00598161090374622,-1.98478875506256
60.3125,-0.427990247054283,0.0037204276147106,-1.6423831619018
60.375,-0.82230783987083,0.000569026782728791,-1.07450601993402
60.4375,-1.15666115059733,-0.00283911185656721,-0.35433387842149
60.5,-1.37962046793552,-0.00587802106292304,0.41049483922999
60.5625,-1.46334516565044,-0.00783737278105004,1.09294244327224
60.625,-1.40795764926621,-0.00803331841854488,1.57140030169241
60.6875,-1.23784982291241,-0.00630852914530392,1.75917097265267
60.75,-0.991764778768507,-0.00338131095084206,1.63013047561352
60.8125,-0.71054528363749,-0.000217799128320985,1.23144802364988
60.875,-0.426968737209793,0.00257901838840779,0.677042570856595
60.9375,-0.160947520089004,0.00467438498473825,0.121114236201939
61,0.0789899766860747,0.00583783961470186,-0.282206986125009
61.0625,0.28966583690444,0.00596688949021259,-0.421719299863761
61.125,0.466240601696707,0.00522477521620504,-0.261294320031158
61.1875,0.598096273152295,0.00398745841861324,0.149295485203891
61.25,0.670100221974117,0.00259716359047787,0.689019456179397
61.3125,0.669208498237632,0.00129017767718842,1.20163581688118
61.375,0.593727920069855,0.000184881656727734,1.54192788447888
61.4375,0.460905862262522,-0.000785021584982698,1.61740602457785
61.5,0.308609470936266,-0.00179699601670076,1.41223030676671
61.5625,0.188781715695728,-0.00292479108349196,0.986152926151234
61.625,0.153472963721484,-0.00397902204126937,0.449815380837936
61.6875,0.237392858549736,-0.00466597092454711,-0.0742427947849253
61.75,0.442872005210904,-0.00483067448776732,-0.490860325177083
61.8125,0.733024509370984,-0.00438628726098952,-0.758200613209648
61.875,1.03665145207166,-0.00318204292774155,-0.89201155209271
61.9375,1.26469635184875,-0.00110887665395228,-0.948027491280509
62,1.33411364672197,0.00157318532846084,-0.990439889605842
62.0625,1.19223403122062,0.00405432034493296,-1.05939199271343
62.125,0.834128565912229,0.00547740725202934,-1.15056566747829
62.1875,0.307373880720937,0.00553636716856899,-1.21510134111862
62.25,-0.297600468260896,0.00433924195281362,-1.18013624051155
62.3125,-0.869007682744076,0.002149334452481,-0.982140477219428
62.375,-1.30088362400461,-0.000630427450182235,-0.600018594182068
62.4375,-1.51819676476121,-0.00336763301241957,-0.0746027373981792
62.5,-1.49301528513849,-0.00516100343345122,0.494129268283568
62.5625,-1.2478368944584,-0.00530431827448653,0.972711029316146
62.625,-0.846209378599133,-0.00391076749535957,1.2348331623292
62.6875,-0.374456013098016,-0.00152432802021982,1.20329317538624
62.75,0.0795342684809443,0.00139123968973147,0.878595319083574
62.8125,0.4444127447143,0.00431768950382603,0.34379054705303
62.875,0.676158468789513,0.00649318689748407,-0.256885639853789
62.9375,0.760265839448204,0.00704912255053694,-0.759146893908202
63,0.706939946940124,0.00560718055835149,-1.02646737010845
63.0625,0.542747902009618,0.00279656353796315,-0.989316556946231
63.125,0.30243550502307,-0.000405867247345726,-0.663578549462714
63.1875,0.0234129580388065,-0.0033399163347388,-0.142951208195591
63.25,-0.256540603478778,-0.00553288773957369,0.431344417717694
63.3125,-0.499625111193739,-0.00657617610282043,0.91312671322858
63.375,-0.668622162990105,-0.00620517866698598,1.19235024454095
63.4375,-0.729637660091541,-0.00458456952307764,1.22234995751066
63.5,-0.657528067985254,-0.00242201196373326,1.0261223543721
63.5625,-0.442834676891745,-0.000401347439955896,0.681688561282418
63.625,-0.0977520751674835,0.00119033378414659,0.293079637129763
63.6875,0.341591023927458,0.00228484021922608,-0.04277787579401
63.75,0.818313459339309,0.00290372782148507,-0.262968917155056
63.8125,1.26341503233998,0.00312439629978416,-0.352234176338675
63.875,1.60792703824453,0.00307924718456818,-0.341314815638049
63.9375,1.79536413799247,0.00283308514547595,-0.292801573696588
64,1.7911393658512,0.0023224824313771,-0.280354323756182
64.0625,1.58669420697149,0.00157259995788612,-0.36774263583128
64.125,1.19796148124044,0.000715113018404298,-0.592605403979594
64.1875,0.659657360409451,-0.000167284984399239,-0.957235524766665
64.25,0.0180492271353219,-0.00106616445443965,-1.42635465245062
64.3125,-0.675164547990784,-0.00194836125640277,-1.9306469754798
64.375,-1.36634752457285,-0.00266904161364432,-2.37490898793501
64.4375,-2.00097992676181,-0.00300992402782371,-2.65044339100465
64.5,-2.52397228941601,-0.00285940766156331,-2.65181204747652
64.5625,-2.88154233287235,-0.00229482578087952,-2.29748062403608
64.625,-3.02633670145531,-0.00146043750623915,-1.55209333607157
64.6875,-2.92583500100796,-0.000458290615656502,-0.445768097840672
64.75,-2.57208742245493,0.000640838349204682,0.915872316223807
64.8125,-1.98938469717311,0.00174116421307563,2.3569656324654
64.875,-1.23625808072861,0.0027099330109667,3.65517533258854
64.9375,-0.399508556779185,0.00341008494883271,4.58213501620238
65,0.419583369449292,0.00370564304311317,4.95296920419912
65.0625,1.12396526210191,0.00344674775274745,4.67280697378562
65.125,1.63952921148001,0.00253197877475491,3.76694943155941
65.1875,1.92849755480602,0.00102312583721551,2.38431847814195
65.25,1.99356154374052,-0.00084295848877039,0.770563040694783
65.3125,1.87172151803316,-0.00275664719094632,-0.784140312534585
65.375,1.62010671514552,-0.00438643479896191,-2.00972862571268
65.4375,1.29865627240355,-0.00534267029620522,-2.71616625102567
65.5,0.955456092475589,-0.00524556498672975,-2.83232551782242
65.5625,0.619380182515227,-0.00399363852917694,-2.41351824463047
65.625,0.301863077757097,-0.00190801809548399,-1.61667127793389
65.6875,0.00614876395910696,0.0005129578250399,-0.651769630973793
65.75,-0.26049160690802,0.00285569005499442,0.275028616005841
65.8125,-0.477237841372177,0.0047774432916225,1.00950097885974
65.875,-0.607567885337036,0.00591120393712424,1.47546086205714
65.9375,-0.606336805636556,0.00592660733029253,1.67363607575075
66,-0.434332922271897,0.00477747965946019,1.65743077721556
66.0625,-0.0754613068998706,0.00285946754992259,1.49704657223519
66.125,0.449710108086924,0.000781559754278782,1.2463727347136
66.1875,1.07948137962731,-0.000977563548139364,0.92470365795618
66.25,1.71826197739838,-0.00218255356234215,0.518769969868456
66.3125,2.25434664506676,-0.00279862395294012,0.00233817947876325
66.375,2.58356361089249,-0.00293339921270706,-0.636165440194837
66.4375,2.63218223762532,-0.00284067916459521,-1.37043741749472
66.5,2.37270742796178,-0.00285249374213469,-2.12792834059557
66.5625,1.82849193268153,-0.00312782834941172,-2.80078150242188
66.625,1.06661401925547,-0.00361506884272662,-3.27291102806317
66.6875,0.181938129909703,-0.00420070573602863,-3.45370208328948
66.75,-0.722467234471464,-0.00460796383752667,-3.30612948237857
66.8125,-1.55301356689888,-0.00427603249575696,-2.8590327670254
66.875,-2.23733771353749,-0.0025190479258325,-2.19905905379439
66.9375,-2.72871874882941,0.000982065596407475,-1.44515973796681
67,-3.00449376264542,0.00525451052473475,-0.714714937718894
67.0625,-3.06155375781881,0.00828543481699849,-0.0930757371993871
67.125,-2.91217215153427,0.00918673044339561,0.383383304441048
67.1875,-2.58214381462187,0.00822080784447956,0.725976062681173
67.25,-2.11117937314794,0.0056516420072325,0.976370751930126
67.3125,-1.55358570605677,0.00179094634415985,1.18121090752026
67.375,-0.976417876863692,-0.00261073442027378,1.36922886603917
67.4375,-0.452938374243691,-0.00631432793793856,1.53977781507464
67.5,-0.0511313392898538,-0.00808618722247649,1.66668852601563
67.5625,0.180571167463072,-0.00744402348221616,1.71496132614815
67.625,0.226300094868054,-0.00477047591469114,1.66255940647536
67.6875,0.109919654555333,-0.000823078798300087,1.51751344896846
67.75,-0.107026870271088,0.00352315889347095,1.3224494465716
67.8125,-0.33736798296279,0.00723519297231389,1.14373437794748
67.875,-0.487969657315003,0.0091951094813292,1.04869092523265
67.9375,-0.482048565530304,0.00863119107010386,1.07931296039935
68,-0.278085176733201,0.00564355174433625,1.23267462627533
68.0625,0.119875931290339,0.00113357374890748,1.45607160768629
68.125,0.663261918610046,-0.00376623073174348,1.65966816076198
68.1875,1.27075102141744,-0.00801954540447813,1.74303205762781
68.25,1.84717905148987,-0.0107035539873838,1.62681827471481
68.3125,2.30420913573792,-0.0110406305763639,1.27890609043016
68.375,2.57741436928662,-0.00867726011201531,0.726191536487827
68.4375,2.63605247069448,-0.00422606575379897,0.0482329966018984
68.5,2.48435749070452,0.000688476735811822,-0.64483850120945
68.5625,2.15568524975686,0.00449337344382086,-1.24257259887359
68.625,1.70251722267073,0.00647827701804302,-1.66273991748709
68.6875,1.18568161073188,0.00660327315292191,-1.86950894980463
68.75,0.665264213442695,0.00519107204729577,-1.87671444907453
68.8125,0.194175663110745,0.00284401390468678,-1.7369835951868
68.875,-0.186037630672816,0.000415146065416585,-1.52199335856613
68.9375,-0.448216280553829,-0.00118341583576423,-1.30127662411909
69,-0.58225985837876,-0.00139526079036175,-1.12623727657283
69.0625,-0.597328597180296,-0.000264950247065684,-1.02299429948358
69.125,-0.522423566379347,0.00170939065493091,-0.993805708677276
69.1875,-0.403717122886988,0.00378723302825445,-1.02377341598913
69.25,-0.297503074078782,0.00512306056656267,-1.08845234619729
69.3125,-0.259047495947457,0.00498207558630699,-1.15908395089063
69.375,-0.329426747901231,0.00307089712745553,-1.20466683440633
69.4375,-0.52386678443427,-0.000243297359959772,-1.19259593989469
69.5,-0.825435757236337,-0.00412573171473453,-1.09082199392614
69.5625,-1.18684956380567,-0.00768825270872972,-0.873733953159939
69.625,-1.54082882810848,-0.0101621425304776,-0.531554595984897
69.6875,-1.81663884677425,-0.0108466550175963,-0.0801324615983536
69.75,-1.95817794730519,-0.00917519601807635,0.433863452199966
69.8125,-1.93814814617311,-0.00513072672492774,0.936999967131646
69.875,-1.76385999687062,0.000279192571307785,1.34421801985472
69.9375,-1.4728318939432,0.00542587319779342,1.58244549612955
70,-1.1196833273827,0.00912798714268922,1.61575605865124
70.0625,-0.758759954985375,0.0109146884017531,1.46287293243914
70.125,-0.428377635997711,0.0106524875575787,1.19891103382122
70.1875,-0.141942014448177,0.00840293049942608,0.937794727472896
70.25,0.111290992234347,0.00461117446780637,0.798458267146104
70.3125,0.356519519298514,0.000275337848237485,0.864398469523894
70.375,0.61867545883263,-0.00340435781684306,1.14989302892764
70.4375,0.908361308130936,-0.00569992406469639,1.58549598002449
70.5,1.21381393948921,-0.00649450655250955,2.03007071559181
70.5625,1.50197070193945,-0.00597299678573587,2.30814262346595
70.625,1.72827882976719,-0.00446430001003914,2.26254680335198
70.6875,1.85159517431456,-0.00244514271205356,1.80633063338247
70.75,1.84859378720282,-0.000464078160505652,0.956959055247805
70.8125,1.72225518729497,0.00104767682207788,-0.159317394373682
70.875,1.50120163155256,0.00187816914791801,-1.33591480959953
70.9375,1.23005485506295,0.00199992153809626,-2.3396350204589
71,0.954355429187033,0.00154516434438627,-2.97373206246283
71.0625,0.705639316431774,0.000814419628419875,-3.13110449674571
71.125,0.49224248947017,0.000189201055387852,-2.82135684981514
71.1875,0.299295873290349,-8.12385615031603e-05,-2.16376747770391
71.25,0.0979531424557217,3.1661473042034e-05,-1.34905429631818
71.3125,-0.139572578795989,0.000456643043820159,-0.582600933885339
71.375,-0.424817320739136,0.00108268815176759,-0.0272450273526658
71.4375,-0.743543784721063,0.00170539951533539,0.23689050152384
71.5,-1.05574778626253,0.00201689060089219,0.22434962847251
71.5625,-1.30566374423856,0.00171867508789716,0.0265916959866933
71.625,-1.4386485911918,0.000730533889905753,-0.227278135351687
71.6875,-1.41932077265535,-0.000719769742172389,-0.416715982927156
71.75,-1.24480078859571,-0.00227748543357732,-0.467189415514997
71.8125,-0.948508212461732,-0.00361878787564595,-0.367429361728412
71.875,-0.59311403511862,-0.00442493486285576,-0.162878873254551
71.9375,-0.254799277334924,-0.00436957407313409,0.0697871565781638
72,-0.00370136596063073,-0.00324171750410435,0.256075603954095
72.0625,0.113557612641668,-0.00113829902559466,0.352249730463608
72.125,0.0843257927899542,0.00146513455993571,0.359180071597926
72.1875,-0.0690935527223293,0.0039184752827616,0.317768739479492
72.25,-0.297325375278398,0.0056944819405639,0.289254650765228
72.3125,-0.537526366265959,0.0064837992374705,0.328948627204527
72.375,-0.728332971363445,0.00611721133986065,0.463650374186237
72.4375,-0.822127098673746,0.00452932768242099,0.680820184873422
72.5,-0.792177718477478,0.00188549083158126,0.932630031785358
72.5625,-0.634282884347321,-0.00126003115636814,1.15235650456193
72.625,-0.364242390739984,-0.00411543994460326,1.27636231950933
72.6875,-0.0132512356834051,-0.0060559624955184,1.26358388436585
72.75,0.377004227582818,-0.00678523796343395,1.10622193182997
72.8125,0.758799968053162,-0.00622634593800871,0.82923228203262
72.875,1.08274413935842,-0.00444775834040725,0.480514035120974
72.9375,1.30298525784454,-0.00174853102571443,0.116676933323414
73,1.38385505610718,0.00120117109599395,-0.210087646954103
73.0625,1.30746322897513,0.0035095944795653,-0.460176766349167
73.125,1.08046302995582,0.00457551935976059,-0.608914841190041
73.1875,0.737390052038603,0.00432755284922724,-0.645008334314797
73.25,0.338172232678958,0.0030185226949902,-0.568427840603664
73.3125,-0.0412372584536562,0.00104198441798891,-0.390397810463327
73.375,-0.323987739526143,-0.00109284181108144,-0.135972543904834
73.4375,-0.449897753776698,-0.00275661831071398,0.152911540673269
73.5,-0.3907702114462,-0.00335218265271546,0.417595919383865
73.5625,-0.158864115296175,-0.00263464659208321,0.58936510869297
73.625,0.194385162520144,-0.000798206463701993,0.603477036503184
73.6875,0.589523575470407,0.00174043579222133,0.417867425514155
73.75,0.937269161151496,0.00442976791226356,0.0307135725989622
73.8125,1.15874662981482,0.00650811731940526,-0.510124750647382
73.875,1.20223230786839,0.00705592812490708,-1.11114829915822
73.9375,1.0521312397481,0.00542376287038948,-1.65197922866628
74,0.728511363418509,0.00190141419199198,-2.01481721317731
74.0625,0.278528114646277,-0.00238806491449692,-2.11616729786121
74.125,-0.236609583383717,-0.00639013255876237,-1.93069353305613
74.1875,-0.754614533188959,-0.00938392385642748,-1.49892059142947
74.25,-1.22132150661214,-0.0107022799950107,-0.915540157425862
74.3125,-1.59450033644492,-0.00966684139279094,-0.301600449991794
74.375,-1.84315922912416,-0.00601700591835543,0.230483046414164
74.4375,-1.94505129687721,-0.000749267897605068,0.607504680817061
74.5,-1.88553581616454,0.00405574096716422,0.811497624626367
74.5625,-1.65980682860354,0.00702020254156786,0.876234073512605
74.625,-1.27833083976495,0.00790469839089053,0.866255725702149
74.6875,-0.773086864836185,0.00683667432417513,0.846834652057967
74.75,-0.200831051289706,0.00416509570430809,0.856523916956796
74.8125,0.360135339021888,0.000662285229857002,0.8928563461413
74.875,0.821266553754675,-0.00242321201604272,0.916630301490279
74.9375,1.10172269199734,-0.00384679766569393,0.872961849975303
75,1.14862208471765,-0.00319898152714884,0.72061281040948
75.0625,0.95354655874701,-0.000959886675505874,0.457584278322377
75.125,0.55955219151233,0.00209280726190478,0.132014338906955
75.1875,0.0553223117124817,0.00510744096306798,-0.167246946756303
75.25,-0.443132891933116,0.00713432832563254,-0.338309676755194
75.3125,-0.818916195334036,0.00726264226848094,-0.302877735435848
75.375,-0.981793906796854,0.00502494849527229,-0.038582489785551
75.4375,-0.889272144402424,0.000883676145821449,0.405398368702519
75.5,-0.555442770179202,-0.00389922848861881,0.916361963722056
75.5625,-0.0454697005558544,-0.00804995463727031,1.34843843435861
75.625,0.542176305986529,-0.0106945287996256,1.5659680240595
75.6875,1.10019372539817,-0.0112500815683957,1.48569478628525
75.75,1.53656750261857,-0.00935392306901726,1.103629335449
75.8125,1.79201631533331,-0.00508602454616978,0.497455304258016
75.875,1.84710730560356,0.000562950757468554,-0.196422621111206
75.9375,1.71888447841542,0.00569160519975214,-0.823582823421178
76,1.44997060408578,0.00866736440619772,-1.25664039636034
76.0625,1.09483115435203,0.00902883756528614,-1.43015490267675
76.125,0.707744255977047,0.00711707971677276,-1.35478372928882
76.1875,0.335251056699202,0.00361840385153339,-1.10743148636333
76.25,0.013405321135022,-0.000525279629717339,-0.802269824184297
76.3125,-0.231952054264544,-0.00410562038759787,-0.553496744452785
76.375,-0.384578229680358,-0.00591045952448368,-0.442556139903036
76.4375,-0.438987338371931,-0.0053976581232082,-0.499820349094368
76.5,-0.403798403873053,-0.00295775915319113,-0.704708016332138
76.5625,-0.305661302766772,0.000569585041789146,-1.00128130916524
76.625,-0.190783185678873,0.00424231134027197,-1.32116981060672
76.6875,-0.121117659514322,0.00703403027348188,-1.60404694462915
76.75,-0.163825946474829,0.00796141488747534,-1.8082240025831
76.8125,-0.37515599601001,0.00653363340549467,-1.90906140657668
76.875,-0.782464348542945,0.00320086906589412,-1.88861586444907
76.9375,-1.36969280409541,-0.000926900117597043,-1.72388021423652
77,-2.07149163081303,-0.00479774352912439,-1.38153938246477
77.0625,-2.77920245916656,-0.00766682931134979,-0.82415880322614
77.125,-3.35864272323727,-0.00892991033730324,-0.0273868626617002
77.1875,-3.67614697280314,-0.00796631431696724,0.997721014562195
77.25,-3.62676173420748,-0.00457083211118865,2.18649680812233
77.3125,-3.1577079498039,-0.000273217899399695,3.41558617978848
77.375,-2.28145177424153,0.00244503386209761,4.51615121700966
77.4375,-1.0754925938039,0.00315904708711129,5.30432659729569
77.5,0.330544689539079,0.00252338020033157,5.62167640477642
77.5625,1.77687877812737,0.000893765368197989,5.37439114158808
77.625,3.09929470635732,-0.00132649949387287,4.55966942774326
77.6875,4.15324927423009,-0.00344403498524044,3.27127729068115
77.75,4.83232299597547,-0.00375201673111843,1.68241469259739
77.8125,5.07906010021729,0.000740321249495124,0.0106224702355924
77.875,4.88829212050447,0.00620824091767283,-1.52566392381878
77.9375,4.30410111256395,0.00683564169191001,-2.74766452585625
78,3.41194540684781,0.00537731998279108,-3.54453947540227
78.0625,2.32752326280944,0.00281900483748977,-3.88446370339245
78.125,1.18281788865623,-0.000990928789364087,-3.80876324093663
78.1875,0.109906952694753,-0.00541929962434543,-3.41359462861406
78.25,-0.77638138460603,-0.0089452452193154,-2.82562773277598
78.3125,-1.39495605319728,-0.00942515969779478,-2.1777316705514
78.375,-1.71110302874504,-0.00597566444248215,-1.58853893198364
78.4375,-1.74203809981428,-0.000786323012524904,-1.14728249183047
78.5,-1.5529550515635,0.00398896024183906,-0.903662028643087
78.5625,-1.24301549526502,0.00769140193586195,-0.86226605934292
78.625,-0.923528012202956,0.00996259068338788,-0.981983263767169
78.6875,-0.693106556792148,0.0102941115290331,-1.18191487441739
78.75,-0.615954514482909,0.00841547303456751,-1.35542870802417
78.8125,-0.709040085836151,0.00507260146832258,-1.39248990227083
78.875,-0.941695551369922,0.00177660983229723,-1.20743766780905
78.9375,-1.24768525345943,-0.000581038945771521,-0.766038501826724
79,-1.5460928099458,-0.00182357003556442,-0.103524895057951
79.0625,-1.76471453621797,-0.00204567885425369,0.674162218668567
79.125,-1.85899034408409,-0.00163425037298331,1.41002425518891
79.1875,-1.82107235454005,-0.00165904493158695,1.93448722104027
79.25,-1.67692956155233,-0.00371849022658094,2.11388504802653
79.3125,-1.47332658380122,-0.00713800095865946,1.89520477241216
79.375,-1.25969267501618,-0.00978444581785209,1.33243298836876
79.4375,-1.07125398620483,-0.0112532703612062,0.583809556246691
79.5,-0.919000255318965,-0.0114532195769788,-0.122613452136944
79.5625,-0.789278007421844,-0.00943605149325204,-0.547831790465646
79.625,-0.652187349961823,-0.00408155929667502,-0.509448230489638
79.6875,-0.474876702324332,0.0040744784358866,0.0617966666670671
79.75,-0.234339434112111,0.0116060749896304,1.09414982389378
79.8125,0.0750248913556768,0.0155982770891209,2.38539315607778
79.875,0.441476966401531,0.0159779267879492,3.65024561388466
79.9375,0.842888500593325,0.0134877744658403,4.5918197976265
80,1.25692147091874,0.00848988907416591,4.97686751482721
80.0625,1.66950810185938,0.00176108295923536,4.69334350775424
80.125,2.07751605657119,-0.00424669190119034,3.77430222481093
80.1875,2.48404019491037,-0.00693448921748036,2.38251970063631
80.25,2.88795627967032,-0.00578414236815254,0.762118703616411
80.3125,3.27202021698653,-0.00148816222579326,-0.826979728496857
80.375,3.59503223389416,0.0048542330094437,-2.17176619549794
80.4375,3.79258431925443,0.0117432863852647,-3.14832832858404
80.5,3.78804932816244,0.0136509372172976,-3.73357182862363
80.5625,3.51156388239318,0.000322148892632268,-3.98686062123484
80.625,2.9217187234813,-0.0142737526399216,-4.01135352386278
80.6875,2.02423200754806,-0.0202744348415483,-3.91020563012144
80.75,0.879911129161923,-0.0228826995430008,-3.75261784302416
80.8125,-0.400747088080545,-0.0221923559469804,-3.55954037593178
80.875,-1.67543192358742,-0.0158805721850026,-3.31084369939691
80.9375,-2.79631777831468,-0.000696327715345862,-2.96796912965925
81,-3.63806638590312,0.0255372881930854,-2.50123839389644
81.0625,-4.12070733167789,0.041246864310051,-1.91056254033828
81.125,-4.22167078827895,0.0249828676056658,-1.23204575187129
81.1875,-3.97523487237079,0.00895056967641331,-0.529118510698383
81.25,-3.46155135146768,-0.00302121962587841,0.127093996972652
81.3125,-2.78773088545158,-0.0144517246267815,0.679671023697121
81.375,-2.06724765825505,-0.0233802086294269,1.10148293328985
81.4375,-1.40184094345411,-0.0260663041082591,1.39906920751433
81.5,-0.868555228161003,-0.0205209394079999,1.60442398696219
81.5625,-0.512632634176314,-0.00941914965593548,1.75904232129016
81.625,-0.345489898405385,0.00143117019259962,1.89716880378218
81.6875,-0.346469680659343,0.00869132736667246,2.03478479531271
81.75,-0.467192979686291,0.0121899267929774,2.16785073768319
81.8125,-0.63816904603074,0.0129150661843288,2.27910654020068
81.875,-0.77802102852777,0.0116835984995559,2.34915738943813
81.9375,-0.805577562236188,0.00923180880831892,2.36613233954828
82,-0.654191996515928,0.00698225392885656,2.32939357196064
82.0625,-0.286254548968001,0.00595179389565118,2.2459371032785
82.125,0.295300562996078,0.00603419425398959,2.12181928361735
82.1875,1.04204951874556,0.00709342665811497,1.95350937022253
82.25,1.86441109936573,0.0085514468448958,1.72433645622498
82.3125,2.64581536054796,0.00870587483258314,1.40899889965326
82.375,3.26449857036898,0.00457627682010159,0.985370522375175
82.4375,3.61819737321399,-0.00642093640885041,0.449209657667682
82.5,3.64580781569033,-0.0186056729109824,-0.174563300815958
82.5625,3.34062686899925,-0.024432820759645,-0.829676341135758
82.625,2.75144338315635,-0.0253707795111287,-1.43786239098707
82.6875,1.97146672268041,-0.0228246295856207,-1.91773189214327
82.75,1.11840530088951,-0.0163435814880552,-2.20716265818436
82.8125,0.310972250756327,-0.00576564788482135,-2.281393580133
82.875,-0.352277215542215,0.00754587611714196,-2.16020314553196
82.9375,-0.807152031654643,0.0199107830164376,-1.90137676009222
83,-1.02900763182399,0.0266876720944341,-1.58268730017475
83.0625,-1.02965367937766,0.0267620367319358,-1.27888639600252
83.125,-0.848932463602247,0.022175899751447,-1.04199884572462
83.1875,-0.544681568295738,0.0144846515111909,-0.891778807202147
83.25,-0.183965463502048,0.00424910596703762,-0.81904886486509
83.3125,0.163258534666954,-0.00762235254986839,-0.799428064106346
83.375,0.428726764578888,-0.0185095224157342,-0.810755050989121
83.4375,0.550518717548381,-0.0246404763945,-0.846052876940785
83.5,0.479456782329634,-0.0242624275899745,-0.915838029770266
83.5625,0.187665305765161,-0.0184602593228257,-1.03823605897144
83.625,-0.322249129449078,-0.00893281506475219,-1.22089191114314
83.6875,-1.01059702941056,0.00272771543367392,-1.44279661198254
83.75,-1.80018925140295,0.0145285642529287,-1.6451028610091
83.8125,-2.58456250796372,0.0236084374750247,-1.73718671983944
83.875,-3.24483173871978,0.0264560112748999,-1.61853469075466
83.9375,-3.67215500550981,0.0214539761141554,-1.21059645206991
84,-3.79045404853337,0.0111770781559055,-0.488046959233071
84.0625,-3.57316590906371,-0.000597243084332594,0.502095301225224
84.125,-3.04892215598408,-0.0115800768204169,1.64172108903255
84.1875,-2.29419736728999,-0.0201795447155421,2.76485576727475
84.25,-1.41482245157031,-0.0247693521338147,3.69685063467383
84.3125,-0.52156581516066,-0.0241017416743555,4.29771953522869
84.375,0.293264918517327,-0.0180928418378686,4.49598433462214
84.4375,0.971737476245562,-0.00822618449376426,4.30235352949213
84.5,1.49485194352707,0.00288785776986101,3.79932314171101
84.5625,1.87565647416191,0.01259945671367,3.11096212383547
84.625,2.14452066409775,0.0191019314427747,2.36377645288695
84.6875,2.33245828696633,0.021628928891345,1.65222914277463
84.75,2.45851263559,0.0202471627241564,1.02026318051277
84.8125,2.52521361394471,0.0156243214975126,0.463879508524461
84.875,2.52279866197016,0.00884204857240802,-0.0481815729304949
84.9375,2.43950778321714,0.00117302408181779,-0.545329103304473
85,2.2730510384832,-0.00615226154808013,-1.03018433349838
85.0625,2.03808605851494,-0.0120849927134153,-1.46847526176849
85.125,1.76628034402607,-0.0158252978666162,-1.79834541029834
85.1875,1.49856658383946,-0.0169550850060011,-1.95576322031618
85.25,1.27234894612546,-0.0156252836903573,-1.90600669510122
85.3125,1.10847961259327,-0.0125351155792099,-1.66825022633212
85.375,1.00303000713404,-0.00855575490052826,-1.32227944481355
85.4375,0.92718001399563,-0.00427516291077682,-0.992642031126278
85.5,0.835601541047173,0.000151152788410474,-0.813838688841892
85.5625,0.680633613214411,0.0047638265803829,-0.887428883745076
85.625,0.427481460171668,0.00942168007287305,-1.24547859267921
85.6875,0.0653636952876371,0.0136023805940726,-1.83326044275072
85.75,-0.388948429538061,0.0165073989624854,-2.51801197473732
85.8125,-0.896012506230564,0.0173318326272195,-3.12199406809018
85.875,-1.40490560291831,0.0155053985526892,-3.47006255136849
85.9375,-1.86657934582621,0.0108828769617867,-3.43724654833694
86,-2.24479599778514,0.00390689009983596,-2.98198361405874
86.0625,-2.52130682270132,-0.0043793201050852,-2.15552158460588
86.125,-2.6943152537532,-0.0125634470127231,-1.08576222951925
86.1875,-2.77182545952252,-0.0191720986298576,0.0582382811383303
86.25,-2.76323080905003,-0.0228258980460336,1.10944404087682
86.3125,-2.67283223065631,-0.0223367058581538,1.94071017328327
86.375,-2.49786002891862,-0.0170963730649526,2.48732020632832
86.4375,-2.23152281591679,-0.00777180814636483,2.75000795827165
86.5,-1.86946153029331,0.00347193354784008,2.78077218783129
86.5625,-1.41658267763833,0.0138800556264088,2.65865512252805
86.625,-0.891154975987103,0.0212809042642371,2.46442953367697
86.6875,-0.324289121556408,0.0244556666935922,2.26163319918592
86.75,0.245144142753943,0.022987244108027,2.08763601465864
86.8125,0.778288023671196,0.017173332452501,1.95416394913648
86.875,1.2438925413116,0.00812059912900662,1.85363904943614
86.9375,1.6230405528973,-0.00221522854662951,1.76682499422741
87,1.90958494810045,-0.0114735922456063,1.66855250627967
87.0625,2.10666126106888,-0.0177951980994714,1.53077438053439
87.125,2.22120201293854,-0.0203470420058776,1.32447782121353
87.1875,2.25904606218545,-0.0191051389522966,1.0228969814536
87.25,2.2227259112816,-0.0145323761459682,0.607597250089806
87.3125,2.11260708811917,-0.00754994315392159,0.0768349287325
87.375,1.93039658185988,0.000441495760920587,-0.546706602452595
87.4375,1.68286626744531,0.00780749247137461,-1.21285330243034
87.5,1.38348930153421,0.0131437284787187,-1.84879618260067
87.5625,1.05066454970783,0.0156312009561027,-2.37244949849929
87.625,0.702909554378267,0.0150997429906092,-2.71136913058711
87.6875,0.353087330183013,0.0119224313099489,-2.82141792762702
87.75,0.00460093080869539,0.00690391820376659,-2.69853589269692
87.8125,-0.347950505433182,0.00113756839817317,-2.37881394256964
87.875,-0.71285884821628,-0.0042431029989751,-1.92610849380164
87.9375,-1.09168652943534,-0.00831431473593352,-1.4112080269427
88,-1.46953174918078,-0.0104688600418266,-0.890157852014528
88.0625,-1.8096046934651,-0.0104306638228653,-0.390168675053435
88.125,-2.05565429862297,-0.00831404463355517,0.0910087372895579
88.1875,-2.14331731089822,-0.00474350826794651,0.571521116869437
88.25,-2.01819330522775,-0.00084901127720179,1.06284301383071
88.3125,-1.65555171333493,0.00211072083082833,1.54769205439021
88.375,-1.07518775359186,0.00334731423790172,1.96875714895183
88.4375,-0.345727997308859,0.00281339069070346,2.23527580121265
88.5,0.424456014852846,0.00102482184444555,2.24800766459754
88.5625,1.10849192434107,-0.00121394948726233,1.93572682071458
88.625,1.58921267519985,-0.00300568591028772,1.29079936117688
88.6875,1.78664437810145,-0.0034978981714505,0.390027765879401
88.75,1.67698991813506,-0.0020974210322181,-0.609381532869722
88.8125,1.29769759166344,0.00108423961384209,-1.50108234937282
88.875,0.737308094716517,0.00507861598032542,-2.08107398561886
88.9375,0.113253931152922,0.00873366932828628,-2.20472967023544
89,-0.455812222852342,0.011251942289765,-1.8315671790119
89.0625,-0.875345224473576,0.0120029378493609,-1.04273972086382
89.125,-1.09135292550296,0.0102650740367383,-0.0242302060038481
89.1875,-1.09466651324591,0.00550221499288119,0.980575867552795
89.25,-0.913758378388634,-0.00166090594970573,1.73543344665644
89.3125,-0.600211606184059,-0.00887132691355825,2.07375729607387
89.375,-0.212575992060503,-0.0137417661766012,1.94049057218195
89.4375,0.196119650852846,-0.0154529068159588,1.40121684798506
89.5,0.584160336604912,-0.0141383346965411,0.616761716295571
89.5625,0.920331193516868,-0.0100802266163141,-0.207748880412067
89.625,1.17925036966336,-0.00369530408291221,-0.882852267935583
89.6875,1.33682310309262,0.0036919993512792,-1.28521636328868
89.75,1.36920862956569,0.00937445024652331,-1.38411285116161
89.8125,1.25663517992461,0.011307375420864,-1.23784742144626
89.875,0.990892591380458,0.0097365067845521,-0.96395954560962
89.9375,0.583317763035723,0.00572357850908973,-0.694934153229347
90,0.0692990516792342,0.000295877248246826,-0.534667130100003
90.0625,-0.493645084149805,-0.00528963108846475,-0.529163714605348
90.125,-1.03483117683556,-0.00933550486891562,-0.658941285242722
90.1875,-1.48436768221728,-0.0101092238530965,-0.852763045027252
90.25,-1.78804725616079,-0.00722792634809218,-1.01549894529688
90.3125,-1.91858974484675,-0.00210232046614606,-1.05933439674796
90.375,-1.87973200198538,0.00357183559712411,-0.928096903014022
90.4375,-1.70199872997451,0.00858625963794046,-0.6084521853531
90.5,-1.43180878136971,0.0119502719300982,-0.127264478620451
90.5625,-1.11770614284199,0.012832583824041,0.460730648009942
90.625,-0.798204773607924,0.0109100513985515,1.0883659850589
90.6875,-0.494842563744767,0.00670001612533766,1.68861786226845
90.75,-0.211947090272569,0.00134044996436612,2.20127978527582
90.8125,0.0578426589212599,-0.00404617410675072,2.57439913103545
90.875,0.325158324802762,-0.00864093580487377,2.76385031773973
90.9375,0.596122942148421,-0.0117772424289742,2.73495345609581
91,0.868008812999215,-0.0128588680727218,2.46827918888754
91.0625,1.12938013497101,-0.0116029375144575,1.96864754844949
91.125,1.36378862282084,-0.00832376093946609,1.27340585104934
91.1875,1.55471623810533,-0.00381492886623826,0.454860312357719
91.25,1.68922910345994,0.00106632468183823,-0.387001561021848
91.3125,1.75875026075449,0.00563684844261797,-1.14195725302723
91.375,1.75700898407123,0.00929659898083088,-1.71339638081322
91.4375,1.67681991931693,0.0113573942013542,-2.04152736094861
91.5,1.50814613527729,0.0112003567520536,-2.11807772580015
91.5625,1.23950423956961,0.00884822668728079,-1.98681426924422
91.625,0.863292201463806,0.00507660754276742,-1.72878642664022
91.6875,0.383639662405462,0.000779537003041679,-1.4365291069387
91.75,-0.176239917986268,-0.00336352603306651,-1.18553350127885
91.8125,-0.770702027302231,-0.00678819607085953,-1.01249500754861
91.875,-1.33489478164461,-0.00893483460735641,-0.907619689509524
91.9375,-1.79500233074158,-0.00933500978302968,-0.823361493368098
92,-2.08340207070502,-0.00795190543149421,-0.696154494445838
92.0625,-2.15460489406862,-0.00541925403936577,-0.473145345479651
92.125,-1.99715783446318,-0.0026181205841768,-0.134315495069669
92.1875,-1.63766420569818,-9.77157054246804e-05,0.297707540767368
92.25,-1.13545021516249,0.00198715881246888,0.76317319717408
92.3125,-0.569351497021906,0.00367024200636627,1.18344592805424
92.375,-0.0205463645821654,0.00498214341434658,1.48487649151715
92.4375,0.44354589575417,0.00586621160315502,1.61959530956346
92.5,0.779929371595878,0.00620766360406583,1.57624725421716
92.5625,0.972996997651726,0.00592465321950094,1.37798269528476
92.625,1.03029334600445,0.00503911051351291,1.07009134484734
92.6875,0.973929961265561,0.00364631177812161,0.703457641907387
92.75,0.831597085725293,0.00183097532952946,0.321036151767839
92.8125,0.630576093775779,-0.000340556788590235,-0.0475379161223012
92.875,0.396282407643316,-0.00272245509207937,-0.382311607198841
92.9375,0.154481162009936,-0.00499958551144809,-0.66395994236026
93,-0.0655598961547212,-0.00674007619492511,-0.865705116932893
93.0625,-0.230271146566714,-0.00756569397965605,-0.952367871879991
93.125,-0.305589918575994,-0.00726800984841235,-0.889438649721729
93.1875,-0.265397451891129,-0.00581983936936148,-0.660041676642486
93.25,-0.102090242860884,-0.00338111097877673,-0.283035774283243
93.3125,0.164915209919795,-0.000325071563646792,0.176638130563731
93.375,0.487034501389833,0.0028029914635496,0.612682092421171
93.4375,0.793289007322152,0.00544464095074521,0.899533884385038
93.5,1.00554902867498,0.00720239952628558,0.927350382425043
93.5625,1.05855754907992,0.00788306241690741,0.639454533203169
93.625,0.918819108424011,0.00742777629297265,0.0591583145426958
93.6875,0.596148356578444,0.00586506706051384,-0.705112534218538
93.75,0.143575171654113,0.00334244752826516,-1.48109001677144
93.8125,-0.35514964082758,0.000176488869967325,-2.07628576884976
93.875,-0.807190025678134,-0.00315083782144014,-2.33182940226193
93.9375,-1.13505473321018,-0.00606725649116126,-2.16993278773593
94,-1.29641486035203,-0.0080302667081824,-1.61938709715798
94.0625,-1.29328389248256,-0.00865056913294205,-0.809898412641475
94.125,-1.16792224984648,-0.00777917305461912,0.0641144459973677
94.1875,-0.987080411947257,-0.00553562508091153,0.799664187989678
94.25,-0.819869336514524,-0.00228059800744662,1.24397503351507
94.3125,-0.716410710827042,0.00144769474512962,1.33749974879459
94.375,-0.693882772157371,0.00501470450066873,1.1277507486152
94.4375,-0.733891161433489,0.0077810817150154,0.749930440256923
94.5,-0.791242453236924,0.00920804918686364,0.381028257970248
94.5625,-0.810530526173286,0.00897467130390063,0.1824280486697
94.625,-0.744692117164042,0.00707756012190005,0.249381926505359
94.6875,-0.569527768425871,0.00386199243572941,0.582962434852608
94.75,-0.290031582976285,-4.6908870059181e-05,1.09238383388926
94.8125,0.0625560015678822,-0.00389410266947684,1.62561416275248
94.875,0.440924778779193,-0.0069715589847536,2.01736939480791
94.9375,0.794953430209959,-0.00876610293658182,2.13874570156945
95,1.08347620704461,-0.00903692712204735,1.93327175472546
95.0625,1.28120916719351,-0.00780863232510773,1.42953008142323
95.125,1.37973932439742,-0.00531068536664556,0.728583539522012
95.1875,1.38380320606056,-0.00192525026222806,-0.0276386063603868
95.25,1.30557929332457,0.00182553781802567,-0.695690845107727
95.3125,1.15989730397145,0.00529887347675985,-1.16543887872802
95.375,0.962201244980339,0.0078344608155673,-1.38119355918574
95.4375,0.729368744412872,0.00893613353190822,-1.34557558058591
95.5,0.48189751517646,0.00841601152800833,-1.10839947890459
95.5625,0.245220093935714,0.00641051296131698,-0.746941640845016
95.625,0.048304697235067,0.00330363873831069,-0.345105740975529
95.6875,-0.080960345256597,-0.000357081282865324,0.0226772038994443
95.75,-0.12243457494181,-0.00392431747209923,0.300317067853728
95.8125,-0.0700478027260767,-0.0067354489400139,0.452569231029372
95.875,0.0648479448372882,-0.00824940898590109,0.464036422615317
95.9375,0.254799288137491,-0.00817907189931814,0.337549249085681
96,0.462230295976687,-0.0065350213646601,0.0932301620890947
96.0625,0.64825585074936,-0.00359803386486628,-0.232533263990068
96.125,0.781362704404011,0.000103836625234642,-0.590301287274292
96.1875,0.843009038154214,0.00381510539571354,-0.924822417226764
96.25,0.828398491244249,0.00666267039063736,-1.18632542102256
96.3125,0.742610046949732,0.00791873455354533,-1.34335559084784
96.375,0.594131295333335,0.00729564183285006,-1.39270402527411
96.4375,0.388870880811248,0.00503288643830838,-1.36177517552044
96.5,0.127464659594492,0.00173585881800788,-1.30071808165901
96.5625,-0.192780468558,-0.00184278838124693,-1.26527505964679
96.625,-0.57205338301788,-0.00495021331818798,-1.29521711545832
96.6875,-1.00091901048061,-0.0069383577703738,-1.39578067077538
96.75,-1.45533776702692,-0.00739301770642131,-1.52943694626392
96.8125,-1.89664032856461,-0.00626344975655724,-1.62232823252925
96.875,-2.27740638363719,-0.00387961259561321,-1.58468581989001
96.9375,-2.55177607575864,-0.00081917672860298,-1.33929772014773
97,-2.68672597832302,0.00227146132398295,-0.848654941678078
97.0625,-2.6701237145169,0.00481430251189103,-0.131242621230753
97.125,-2.51231418509143,0.00639761230205561,0.739162854075938
97.1875,-2.24031421592907,0.0068400921573974,1.65146980552158
97.25,-1.8865598930924,0.00619247586434871,2.48658620531562
97.3125,-1.47645288742441,0.00466628690305927,3.14792875019046
97.375,-1.01973521003756,0.00253380857454716,3.58246415160043
97.4375,-0.509571711874779,6.32794664614175e-05,3.78513417827918
97.5,0.0695490367363757,-0.00248500443769554,3.7858511793897
97.5625,0.727413488570738,-0.00482997278970592,3.62505650612985
97.625,1.45232230448234,-0.00665423601524132,3.32848045086423
97.6875,2.20022148823167,-0.00762401680792959,2.89232678606226
97.75,2.89385146721142,-0.00743867397106926,2.28621838304737
97.8125,3.43395474592846,-0.00589929443992479,1.4741864906491
97.875,3.72054105907187,-0.00300717923041299,0.446353179264422
97.9375,3.67859747763082,0.000881185507368197,-0.751319192766726
98,3.28072604742752,0.00491202648437863,-2.00257367679242
98.0625,2.55969950868491,0.00791258011499296,-3.1306869370089
98.125,1.60673176629317,0.00901246193546022,-3.93340088953423
98.1875,0.555455849162147,0.00802397167245095,-4.23461233619921
98.25,-0.444225001358593,0.00521235727046152,-3.93759443808834
98.3125,-1.25546333315863,0.00106136164726733,-3.06252210385303
98.375,-1.77945504753662,-0.0037041602619782,-1.75488921880944
98.4375,-1.97031617700323,-0.00798118294769404,-0.259942980660305
98.5,-1.83742674797023,-0.0102428605519339,1.13125697928343
98.5625,-1.43655191451372,-0.00932066531258003,2.14961445464839
98.625,-0.853925147042247,-0.00572617759290421,2.61067607921709
98.6875,-0.188608344769382,-0.000943997736188303,2.45487720071882
98.75,0.462418739887254,0.00398203227273446,1.75500232164223
98.8125,1.01414787489118,0.00831877302131871,0.690480321593443
98.875,1.39860131604459,0.0111552735498772,-0.50224220358922
98.9375,1.56709857458618,0.0113480760672649,-1.58782385421323
99,1.49223593751727,0.00829919787260224,-2.38226934137402
99.0625,1.17110822553861,0.00344242131491071,-2.78310403198275
99.125,0.629437122744088,-0.000907010273739102,-2.77482500460609
99.1875,-0.0756117317471271,-0.00387119183837839,-2.4130135297466
99.25,-0.856975963871123,-0.00528717557481622,-1.7962900457896
99.3125,-1.60600315763416,-0.00512855010287207,-1.0371236939585
99.375,-2.20795493624754,-0.00355487539147785,-0.240233572856442
99.4375,-2.56247425517411,-0.00135388904780841,0.507666619414894
99.5,-2.60446195954313,-0.000664638513612006,1.13845851029486
99.5625,-2.31980564029916,-0.00239424942722275,1.59890516225939
99.625,-1.75118396261318,-0.00466230110472511,1.84862841678806
99.6875,-0.991601668568764,-0.00657808572824023,1.86339707839883
99.75,-0.166704529050972,-0.00795933617255115,1.64327908682373
99.8125,0.589958261059704,-0.0080416258247706,1.22143468674911
99.875,1.16268169256871,-0.00557714017556304,0.667616538348249
99.9375,1.47425027078291,0.000393536625507557,0.0816421586332443
100,1.49711525338462,0.0080560231370295,-0.424211304900959
100.0625,1.25357739278249,0.0128674827603203,-0.750261061370548
100.125,0.806374594681323,0.0136983366119873,-0.834599648819901
100.1875,0.243458100510699,0.011632839819667,-0.67000709953889
100.25,-0.338667316319136,0.00728640964979463,-0.306330052518739
100.3125,-0.849491381185616,0.000986921397173002,0.163265732091752
100.375,-1.21497916650067,-0.00648118974476707,0.628270526326149
100.4375,-1.38386878261037,-0.0122976670654742,0.990890255673003
100.5,-1.33082977201274,-0.0128547689650349,1.19065458663572
100.5625,-1.05777106443109,-0.00910863330236673,1.21603925046939
100.625,-0.59408621425938,-0.00353227317494045,1.10021342528107
100.6875,0.00478101158035391,0.00293875157967828,0.903568624206992
100.75,0.661792268429443,0.00939356635569733,0.690052224870657
100.8125,1.2869114687511,0.0141703906596213,0.505945118625905
100.875,1.78995918267836,0.0148469919636077,0.368109095076523
100.9375,2.09610800295695,0.00997170465274282,0.264649830724202
101,2.16078388914924,0.0025363980213612,0.166072746871566
101.0625,1.97997201942662,-0.00395386056033663,0.0412646089182427
101.125,1.59229160948931,-0.00874378288104486,-0.128578976875073
101.1875,1.07131648333193,-0.0115856119297374,-0.343324452613036
101.25,0.509448696662201,-0.01206585674713,-0.586167742200592
101.3125,-0.0027574348406138,-0.00997806815588629,-0.832369950790904
101.375,-0.396319538897162,-0.00597912460193997,-1.0593737434965
101.4375,-0.637221947054027,-0.0017719650468738,-1.25301941440279
101.5,-0.729971179392315,0.0012411355481609,-1.4068762635344
101.5625,-0.710821201073637,0.00281327891172971,-1.51542992805256
101.625,-0.633349397753995,0.0032334177247301,-1.56530905268121
101.6875,-0.551259991921243,0.00296106756595908,-1.53026882593852
101.75,-0.503775767645815,0.00256130143419221,-1.37444549677836
101.8125,-0.507654793218317,0.00264407646453961,-1.06481706628309
101.875,-0.557265200865301,0.00347593079124209,-0.589282285656598
101.9375,-0.631272380877251,0.0046833211372137,0.0267482461373588
102,-0.702414871366396,0.00582991579732716,0.713188454872905
102.0625,-0.746286626564638,0.00666475163800228,1.36296139861112
102.125,-0.746133670882314,0.00667098277538713,1.85478116277749
102.1875,-0.692885907887432,0.00492839475001546,2.08531791372573
102.25,-0.581992941833402,0.00085901362405637,2.00061264811993
102.3125,-0.410107369813183,-0.00440186886063195,1.61563800224599
102.375,-0.174599687716207,-0.00868857259407828,1.01407879186432
102.4375,0.122679984306135,-0.0110345005926035,0.326843127406839
102.5,0.46834915942337,-0.0114334880818784,-0.304703077481957
102.5625,0.830380751294675,-0.00983382317755696,-0.769008996103997
102.625,1.15522956006995,-0.00598953693163836,-1.0145453702737
102.6875,1.3727037648441,-0.00026893899357105,-1.05942043532946
102.75,1.40958347300897,0.0051749779028046,-0.976899460620527
102.8125,1.20955858398442,0.00791737311363418,-0.861895195059094
102.875,0.754069453272247,0.00779079997251402,-0.790527405437387
102.9375,0.0772665749778416,0.00562094664139437,-0.787696558241258
103,-0.730971658808489,0.00210252418552928,-0.81508741829025
103.0625,-1.53695885899976,-0.00199402756595733,-0.784864609161445
103.125,-2.18860783881725,-0.00551660970798842,-0.595001439571348
103.1875,-2.54856394441394,-0.00673057923846307,-0.174016912013134
103.25,-2.52651611501461,-0.00464072834552983,0.481114661222393
103.3125,-2.1019258912088,-0.000739425564501893,1.28840716771548
103.375,-1.33085272724071,0.003173330497373,2.09322438685114
103.4375,-0.334822627483963,0.00648201643862858,2.70726669075044
103.5,0.725277362784735,0.00880851366086489,2.96254517286863
103.5625,1.68326621343169,0.00951797521225426,2.76315731107573
103.625,2.4008984964488,0.00777521788847092,2.11790066202252
103.6875,2.79225942042139,0.00318648923747875,1.1427185681908
103.75,2.83435434980369,-0.00253324382536793,0.0316462678771265
103.8125,2.56308211527748,-0.00645100097533979,-0.994974494285486
103.875,2.05763633750511,-0.00806532559173053,-1.74911053708422
103.9375,1.41890705973633,-0.00802814900730545,-2.12273127330248
104,0.748021686310514,-0.0065044666309968,-2.11074275079389
104.0625,0.129780087887286,-0.00359369242302031,-1.80350378902635
104.125,-0.376705716610725,0.000161702797943888,-1.35286283837541
104.1875,-0.740392253745068,0.00352186620849772,-0.923476034581544
104.25,-0.955686082069681,0.00508939896181536,-0.644786394811658
104.3125,-1.03732695104597,0.00464191208869573,-0.577593151341087
104.375,-1.01467548667186,0.00291800512262276,-0.703499354054746
104.4375,-0.926161415129217,0.000563155791169548,-0.937894486878546
104.5,-0.81365085844774,-0.00192018719409094,-1.16015719553834
104.5625,-0.71617343249728,-0.00390665954031989,-1.25060205134875
104.625,-0.662961080186867,-0.00463519026292184,-1.12329867660991
104.6875,-0.666776015035606,-0.00368909529058835,-0.746817390644256
104.75,-0.719439674629307,-0.00149346489159216,-0.14969272491718
104.8125,-0.79171216078785,0.00119535114592185,0.587946006068601
104.875,-0.838882000206814,0.0038958704121608,1.35206527450697
104.9375,-0.811752247796824,0.00618565100310082,2.01638477607446
105,-0.670733055867372,0.00730998245331192,2.46365802820729
105.0625,-0.399247726411851,0.00634407294443596,2.60405423433879
105.125,-0.0123049603279137,0.00326332555590043,2.38960034272998
105.1875,0.442842151372312,-0.000544519244932162,1.8240864933857
105.25,0.894798635346561,-0.00375420747886952,0.967308783714183
105.3125,1.2630304824135,-0.00586519602144597,-0.0682492871848655
105.375,1.47571434575982,-0.00676202361373758,-1.13022284373683
105.4375,1.48550518751605,-0.00628151008004838,-2.04917994102379
105.5,1.27902290339933,-0.00424683927523635,-2.66915771721731
105.5625,0.877954170585132,-0.00139672464648445,-2.88029565890106
105.625,0.332342254491143,0.000588546207871284,-2.64549441626293
105.6875,-0.291050619466735,0.00110125446943602,-2.01283062042548
105.75,-0.921249300235921,0.000463046150968279,-1.1081791039693
105.8125,-1.49285081059673,-0.000717530341520084,-0.10770917538597
105.875,-1.95122398485132,-0.00162721486415387,0.803868201192041
105.9375,-2.25347913710384,-0.0012838138920125,1.47835318122409
106,-2.36737774840406,0.00107909084245482,1.83950791482726
106.0625,-2.27098881329123,0.00367851108363574,1.89816397840682
106.125,-1.95513280882419,0.00499141274699073,1.74211892717879
106.1875,-1.42863990339884,0.00564836193376169,1.50378250784788
106.25,-0.724362784345878,0.00568728234256721,1.31569325844502
106.3125,0.0974712659584877,0.00460664959087115,1.26801521366874
106.375,0.951994319641441,0.00199551431479425,1.38146395210284
106.4375,1.74025114565457,-0.00180887889033511,1.60392001584981
106.5,2.36651776351654,-0.00509751322324369,1.83101826700567
106.5625,2.75846216118195,-0.00633607356586409,1.94299728680332
106.625,2.88437928892555,-0.00614817838266164,1.84485243519352
106.6875,2.7617804330309,-0.00527126674245019,1.49618972863275
106.75,2.45376717886782,-0.00384366384612322,0.921294740892377
106.8125,2.05317223443747,-0.00190115965405381,0.197267661608153
106.875,1.65831705768742,0.000384730276067344,-0.574074139446524
106.9375,1.34708551294719,0.00267408049362218,-1.29931660141165
107,1.15679825870239,0.00458251807112723,-1.91917971913481
107.0625,1.07576341762739,0.00589935921840455,-2.41789580956865
107.125,1.04886952273297,0.00661641209773776,-2.8139755009348
107.1875,0.995324197645586,0.00664862295352118,-3.13745834563886
107.25,0.833042816190606,0.00561908919873162,-3.40394676925376
107.3125,0.502434276053112,0.00309477816544688,-3.5968056546254
107.375,-0.0170680230272242,-0.000634101227793279,-3.66549239690067
107.4375,-0.701721901614667,-0.00421736264894416,-3.54141254579223
107.5,-1.48973318436642,-0.00656463681560262,-3.16553470383229
107.5625,-2.29591324960241,-0.00742991682736382,-2.51702549035488
107.625,-3.0295086090232,-0.00666393688960599,-1.63132984342775
107.6875,-3.60989415769927,-0.00375200703274959,-0.599789716997394
107.75,-3.97656481194236,0.00207974795412257,0.450292214244723
107.8125,-4.09256929347198,0.00873654516203784,1.38884567150718
107.875,-3.94307597495331,0.00761326017157792,2.11803008250527
107.9375,-3.53218052988532,0.00109863435312023,2.59665872200748
108,-2.88090471328807,-0.00373670847251584,2.84538307411945
108.0625,-2.02762790478739,-0.0075877986269989,2.93092830782366
108.125,-1.03019677166009,-0.0107707831167176,2.93533239976971
108.1875,0.0329371803033289,-0.0118610669564295,2.92166081276469
108.25,1.06574545531499,-0.00892866168096211,2.90895598372473
108.3125,1.9639010136251,-0.00123585752916682,2.86576103978434
108.375,2.63009797860792,0.00773731037032147,2.7246821638233
108.4375,2.99243359899559,0.0127760800707335,2.41266924041776
108.5,3.02090129733213,0.0132900803672454,1.88584585909216
108.5625,2.73697115534666,0.0106161841988919,1.15593623625686
108.625,2.21245081410622,0.00566018129163822,0.298249755945475
108.6875,1.55671071231036,-0.000526632003773748,-0.562315312051534
108.75,0.894908307087848,-0.00633115780322819,-1.28307379181159
108.8125,0.342569750466407,-0.00984170195219039,-1.74283086561434
108.875,-0.0170082816921031,-0.00986209727224941,-1.87585788687302
108.9375,-0.146979282901468,-0.0066212258181205,-1.68980658267233
109,-0.0597814682568089,-0.00117800805737595,-1.262410493527
109.0625,0.191139953309942,0.00521276658516454,-0.718907448047219
109.125,0.527443183804004,0.0110491221252966,-0.198138880118517
109.1875,0.864806532523204,0.0145188172753488,0.181782041082762
109.25,1.12962830137075,0.0140091516593584,0.348286669150142
109.3125,1.27003158072819,0.0091785498558809,0.283875110281112
109.375,1.26006227074246,0.00140051131209021,0.0201928736688836
109.4375,1.09817192387716,-0.00722427399819632,-0.378576832606529
109.5,0.802377874999105,-0.0148224060021533,-0.835720190323455
109.5625,0.404639169840704,-0.0198280104300887,-1.27861964894186
109.625,-0.0539303560838168,-0.0209504043691798,-1.6481545340173
109.6875,-0.526801144091826,-0.0175252376015034,-1.90089330896276
109.75,-0.965623520808186,-0.0100569881575237,-2.007162843087
109.8125,-1.32485051067301,-0.000323501372006067,-1.94912197358302
109.875,-1.56785953810628,0.00936962595842262,-1.72173520296976
109.9375,-1.67376180728041,0.0170880356900846,-1.3368200452804
110,-1.64291760639166,0.0215343134282652,-0.827560309984913
110.0625,-1.49873673024752,0.0219823898253065,-0.249468839484081
110.125,-1.28397902389303,0.0183743651432516,0.325465229109265
110.1875,-1.05140831784968,0.0114987031487357,0.822012090383897
110.25,-0.850731721348624,0.0028939618095006,1.1793828783437
110.3125,-0.715435605902198,-0.0056202933388556,1.36769186638715
110.375,-0.65365574751067,-0.0124864201174377,1.3969246360354
110.4375,-0.646255931475221,-0.0167019009734126,1.31414987421406
110.5,-0.653081308323004,-0.017848198914353,1.18874285811783
110.5625,-0.625646088956529,-0.016031889550666,1.08992563771607
110.625,-0.522287176165553,-0.0118343963763371,1.06414314406041
110.6875,-0.320913006357523,-0.00620647342797753,1.12028718218699
110.75,-0.0252851870548976,-0.000240715062165082,1.22818505582611
110.8125,0.336957758781307,0.00508653053348305,1.33095512523168
110.875,0.723404279303375,0.00906313192551212,1.36660677156779
110.9375,1.08948814835853,0.0112692390275894,1.29068416725016
111,1.39990269098907,0.0115676523448882,1.09130543311384
111.0625,1.63478811055727,0.0101134510218299,0.790918139820171
111.125,1.78890325783183,0.0073568075441718,0.434404471458196
111.1875,1.86490192777214,0.0039505194586497,0.0687649808175904
111.25,1.86427669961949,0.000547211428772426,-0.276770744015575
111.3125,1.78053271598411,-0.00237389143922314,-0.601274796754145
111.375,1.5982764976721,-0.00453269512823195,-0.928016158372124
111.4375,1.29944402483946,-0.00578238206117565,-1.28653737480146
111.5,0.874776542349521,-0.00606560213138964,-1.68790954746335
111.5625,0.336103113069165,-0.00543036591877888,-2.10390578408385
111.625,-0.275946900365564,-0.00406357449845087,-2.46043967396521
111.6875,-0.893036229200512,-0.00228058448094354,-2.65092231553561
111.75,-1.43034790741933,-0.000449924743635057,-2.56772291007759
111.8125,-1.80561672690762,0.00111128092249156,-2.1423847393889
111.875,-1.96053983292646,0.00221279165626347,-1.38056715521572
111.9375,-1.87779484997574,0.00280091365263826,-0.377873111422299
112,-1.58786313002968,0.0029070654010412,0.691911795481392
112.0625,-1.16288914025288,0.00257716027833969,1.61570349275987
112.125,-0.698902285433901,0.00183820822200271,2.1971602169843
112.1875,-0.291483627441461,0.000729162857138373,2.31322085390517
112.25,-0.0120779500040068,-0.000636131745276688,1.95311492144931
112.3125,0.108098990869867,-0.00203595463141731,1.22650197854712
112.375,0.0821282325512914,-0.00316588462478792,0.336753574771504
112.4375,-0.0410978319637845,-0.00370447351898283,-0.473625704504986
112.5,-0.19451021847729,-0.00340063296840983,-0.98949624915225
112.5625,-0.313607942410788,-0.00217184733526325,-1.08166570260763
112.625,-0.353768201640761,-0.000167408669320179,-0.740191191657235
112.6875,-0.299265063909111,0.00225869338454327,-0.0730275655525343
112.75,-0.162310593454702,0.00463235510667163,0.728533297706468
112.8125,0.026106136924681,0.00641694303972258,1.44612931102805
112.875,0.229280564835286,0.0070614847135984,1.89474435446454
112.9375,0.416677417778296,0.00613737748110838,1.96946557922028
113,0.570670805868413,0.0035503711262102,1.66611696748453
113.0625,0.686608315185147,-0.000339304452249414,1.07218357308613
113.125,0.767422314276032,-0.0047894187874969,0.333738584645785
113.1875,0.816022757493932,-0.00884186974282308,-0.38925093860326
113.25,0.82926685672199,-0.0114814236315433,-0.964779035491158
113.3125,0.796309680088867,-0.011839063555907,-1.3160942348507
113.375,0.702094825603961,-0.00950099960679367,-1.42885898912193
113.4375,0.534516432826889,-0.0047806248816766,-1.33972594518977
113.5,0.292260341974886,0.00133308040226608,-1.11346132586468
113.5625,-0.00992308731184251,0.00756454559032409,-0.818087170208836
113.625,-0.340712127512443,0.0127134648887054,-0.50627216605463
113.6875,-0.656809660017806,0.0157720905877392,-0.207360562255932
113.75,-0.911106011853464,0.0159598959139407,0.0702073328713453
113.8125,-1.06173370821677,0.0129062290690334,0.329916079109259
113.875,-1.07933086361068,0.00697787701537435,0.576835786387328
113.9375,-0.950859656840403,-0.000586350880924065,0.810149375028645
114,-0.679872486386825,-0.00806873229097682,1.02032659435897
114.0625,-0.284476761789074,-0.013922383142338,1.19016665593582
114.125,0.205174701754955,-0.0171210292614184,1.29747999332079
114.1875,0.748491288334705,-0.0171627740144847,1.31737401120064
114.25,1.29499929035967,-0.0140236673492636,1.22360651174032
114.3125,1.78505379067997,-0.00822162572806457,0.990262196326236
114.375,2.15269382536515,-0.000910601972715575,0.595925565644792
114.4375,2.33233125225984,0.00626643255188247,0.0318343458851666
114.5,2.26957456068939,0.0117164093980214,-0.686704418070343
114.5625,1.93449626217038,0.0144516496745096,-1.50912955881512
114.625,1.33385689444793,0.0142060774220076,-2.34411287690597
114.6875,0.518004734236745,0.0112467476112747,-3.06503283156464
114.75,-0.421098826435939,0.00621998688775634,-3.52907522269351
114.8125,-1.36206180254753,8.21467686054345e-05,-3.60798835766592
114.875,-2.17474485871476,-0.00598589180561227,-3.2235368807679
114.9375,-2.74490638426902,-0.0107309288746799,-2.37731997639304
115,-2.99667257600975,-0.0130678922816792,-1.16445336895393
115.0625,-2.90697313352468,-0.0124196531583679,0.235794482093604
115.125,-2.50823444742467,-0.00900380290794806,1.59281518708473
115.1875,-1.87896612662125,-0.00375435344274959,2.67393181878601
115.25,-1.12529577228997,0.00212117367106074,3.29739324552526
115.3125,-0.358871608545212,0.00752025583225449,3.37438344838877
115.375,0.322898516554587,0.0115327174973555,2.92803889264936
115.4375,0.849701834825316,0.0134069102070002,2.08412598313368
115.5,1.1824635858224,0.0126212450971736,1.03651086043716
115.5625,1.31003592201675,0.00916035522186512,-0.00197260539116606
115.625,1.24192107119743,0.00381521461863729,-0.848696510067805
115.6875,1.00113844699781,-0.00197380585149446,-1.38674913541535
115.75,0.620231256449106,-0.00679802061532882,-1.57833719913245
115.8125,0.141130690185774,-0.00977763318034536,-1.45535170725384
115.875,-0.382837724220561,-0.0105634221863771,-1.09376132002626
115.9375,-0.886069973055289,-0.00920115808209835,-0.582981604053142
116,-1.29415232238509,-0.00609773261074114,-0.00150298975481755
116.0625,-1.53324897894757,-0.00207772884238578,0.593944030971553
116.125,-1.54431703546363,0.00168999109982752,1.16480173968372
116.1875,-1.29847898419086,0.00414570142338654,1.67797931224412
116.25,-0.808480488430489,0.00483711427061947,2.09287930113526
116.3125,-0.131613248331666,0.00391430427934283,2.35657987892516
116.375,0.638237306216891,0.00186182108595389,2.41146372575447
116.4375,1.38838118482897,-0.000644480694207193,2.21350472384155
116.5,2.01061478408283,-0.00280147201757199,1.75394147289446
116.5625,2.42367125543728,-0.00379258824555413,1.07450718211236
116.625,2.58854181373712,-0.00308868674231914,0.26792932807324
116.6875,2.51253255484325,-0.000904595862105227,-0.539391329472689
116.75,2.24145037192582,0.00182215645256235,-1.21870117616725
116.8125,1.84299929988914,0.00411851302393644,-1.67445731199668
116.875,1.3870508198837,0.00541080847182839,-1.87182663153515
116.9375,0.929044501951236,0.00546191663677172,-1.84582202455182
117,0.501222492428944,0.00426172494144535,-1.6878053732828
117.0625,0.113335802739496,0.00205037718125329,-1.51303358813795
117.125,-0.238970247572655,-0.000621026711421788,-1.41989074911844
117.1875,-0.562437985724939,-0.00301236188441094,-1.45481763297675
117.25,-0.856289659780431,-0.00453989963661137,-1.59536803747114
117.3125,-1.10810663707837,-0.00499578680086802,-1.75773473939302
117.375,-1.29686289323565,-0.00446436309022586,-1.82660237711181
117.4375,-1.40147477398504,-0.00317197205661095,-1.69730991551967
117.5,-1.4109978537527,-0.00143417166920944,-1.31586082481199
117.5625,-1.33197580578578,0.000363810559295313,-0.70290579010543
117.625,-1.18961723378989,0.00185981063258759,0.0467575729952995
117.6875,-1.0219455212998,0.00284713191870805,0.789291039921564
117.75,-0.868850718889229,0.00330668060477543,1.37334236977863
117.8125,-0.759989535155046,0.0033072867224627,1.68440809747718
117.875,-0.705962652509856,0.00289678409083192,1.67776703849769
117.9375,-0.695983494509422,0.00209531564981282,1.38985922598156
118,-0.702829364897369,0.000967698498347629,0.925358890102859
118.0625,-0.693177294685487,-0.000339443832716424,0.425138996713794
